acc_x, acc_y, angular_z, stamp, 
-0.8964900635227533, 0.6396691542597944, 0.580140430973671, 2302090000000, 
-0.6824084447214368, 0.6129088013747743, 0.5795171225078387, 2302095000000, 
-0.32403198849066567, 0.24526181361295354, 0.5783892438209346, 2302100000000, 
0.23703381036079, -0.1868471075204262, 0.577561692840194, 2302105000000, 
0.4393230759294759, -0.374503005158494, 0.575958069571111, 2302110000000, 
0.5544284688714411, -0.5102898202375642, 0.5752304207601465, 2302115000000, 
0.438958615659077, -0.410422154178145, 0.5750728359878028, 2302120000000, 
0.3811269844912722, -0.4822771092317142, 0.574106486094123, 2302125000000, 
0.38569083913087815, -0.49045375368398914, 0.573652253523848, 2302130000000, 
0.36533401695972784, -0.5334724625596828, 0.5728968996712347, 2302135000000, 
0.305780215518962, -0.5056692883183336, 0.5729281188379649, 2302140000000, 
0.25789274468352513, -0.5845643084629688, 0.5719355005473971, 2302145000000, 
0.2512750451784259, -0.5679573646183536, 0.5719419057970621, 2302150000000, 
0.25211778250192024, -0.571673460043656, 0.5710946230988401, 2302155000000, 
0.14670550082262165, -0.6013801288691747, 0.5708174668379599, 2302160000000, 
0.13843227959044188, -0.610725963346872, 0.569951650100742, 2302165000000, 
0.09481413338462676, -0.631241596070715, 0.5701033991476273, 2302170000000, 
0.06961616981688297, -0.6315718353348897, 0.569507351235623, 2302175000000, 
0.01782884288212928, -0.6496800308985268, 0.569258262057443, 2302180000000, 
-0.031759190316217836, -0.6488571924645712, 0.5688645056722667, 2302187000000, 
-0.0636593346130436, -0.7122447584049721, 0.5684307585617687, 2302192000000, 
-0.14424758177188055, -0.6934685107522489, 0.5678165012143291, 2302200000000, 
-0.15276591003926873, -0.6956992428972197, 0.5676198700568981, 2302205000000, 
-0.17544288024340013, -0.7718847866020041, 0.5673953773743191, 2302210000000, 
-0.20450694768266636, -0.7288602487841555, 0.566837547298188, 2302215000000, 
-0.2831719208903395, -0.7434655716458707, 0.5665874492955507, 2302220000000, 
-0.29054009780526135, -0.7330024735115784, 0.5661015366829343, 2302225000000, 
-0.33054001947696804, -0.7397610854210448, 0.5662138822765439, 2302230000000, 
-0.36928916040031995, -0.7718336338539343, 0.5657051791191623, 2302235000000, 
-0.401790338876699, -0.7735700218414867, 0.5659272860633954, 2302240000000, 
-0.3950835740662274, -0.8030384847470701, 0.5656324612563826, 2302245000000, 
-0.4895118742165785, -0.7989891230972249, 0.5655190053598005, 2302250000000, 
-0.5207342020449803, -0.8328904945538129, 0.5651494164997644, 2302255000000, 
-0.542190337262884, -0.8511309866347775, 0.5651940113971099, 2302260000000, 
-0.5914173147178539, -0.7965202794978483, 0.5645208394735327, 2302265000000, 
-0.6531403483352691, -0.8207413802508935, 0.5646536027757781, 2302272000000, 
-0.7039749284054821, -0.8104018803566108, 0.5643563526771339, 2302277000000, 
-0.7052294513199237, -0.8141308738852118, 0.5645837662735886, 2302282000000, 
-0.7208858371907758, -0.8268679156594463, 0.5641304503622785, 2302287000000, 
-0.7651237840407259, -0.8265018439720189, 0.5640609267141674, 2302292000000, 
-0.7811956596023941, -0.8157190763406161, 0.5645328547325146, 2302297000000, 
-0.8825602997998048, -0.8648319556629992, 0.5643265990084219, 2302302000000, 
-0.9138666270859815, -0.8282564943139283, 0.564364112176189, 2302307000000, 
-0.9483176233429023, -0.8769802797315269, 0.5641907382461208, 2302312000000, 
-0.9883838569701481, -0.845611491346126, 0.5640593938843197, 2302317000000, 
-1.0351020967476994, -0.8983803310462642, 0.5642058497002932, 2302322000000, 
-1.037885732450763, -0.8587282633655959, 0.5645039079550235, 2302327000000, 
-1.1180951013451441, -0.8799605139714353, 0.5644581109072678, 2302332000000, 
-1.1354770108364596, -0.8494386721294958, 0.5647138169189382, 2302337000000, 
-1.162874286383224, -0.8535933949661441, 0.5644927067511198, 2302342000000, 
-1.186778768750581, -0.8740123894812564, 0.5644830406544625, 2302347000000, 
-1.229810953907151, -0.8679356900926699, 0.564966374457775, 2302352000000, 
-1.2349869566639249, -0.8798090014133806, 0.5645997591776524, 2302357000000, 
-1.2932440523965356, -0.8932421624780756, 0.5653649293875322, 2302362000000, 
-1.332443811013768, -0.8949955463164784, 0.5653538635984249, 2302367000000, 
-1.378969614858439, -0.8819310826782248, 0.5653635534655986, 2302372000000, 
-1.4139895422484758, -0.896470246579569, 0.5654999464680966, 2302377000000, 
-1.4320238538060583, -0.8705490695990034, 0.5655200229343385, 2302382000000, 
-1.479333685510644, -0.8660407371757081, 0.566251251790548, 2302387000000, 
-10.461578072125917, -0.8299432446624919, 0.5697551841669872, 2302392000000, 
-8.518960999188566, -0.9103044825477051, 0.5737765869091724, 2302397000000, 
-0.8911645891761163, -0.9112368417942336, 0.5736920113106543, 2302402000000, 
-1.4153664491204578, -0.9246836979648517, 0.5734020533318359, 2302407000000, 
-1.6022492963549484, -0.911015295697972, 0.5743792688507531, 2302412000000, 
-1.6783693474063173, -0.8829498204515736, 0.5748502993896756, 2302418000000, 
-1.7265698302744723, -0.8933312151039063, 0.574454399834081, 2302423000000, 
1.9683101036453747, -0.8928420913933421, 0.5720193794878851, 2302428000000, 
-1.76987111717628, -0.8646736203636747, 0.572334196118987, 2302433000000, 
-2.0279248920152986, -0.8912923806335726, 0.572466549144201, 2302438000000, 
-1.9511315518098928, -0.8743524687927992, 0.5734486936961665, 2302443000000, 
-1.9331486790652583, -0.8805699603404029, 0.5738971699493111, 2302448000000, 
-1.9421556852349784, -0.8308658416532815, 0.5738419279386723, 2302453000000, 
-1.977732322169914, -0.8318619080086129, 0.574861204158146, 2302458000000, 
6.820108044342495, -0.8618190946390167, 0.5720545154228833, 2302463000000, 
-2.213946994964327, -0.8521469763260712, 0.5724228435185806, 2302468000000, 
-2.290242875526047, -0.8172105255891348, 0.5730881487586572, 2302473000000, 
-2.1526277862581362, -0.8224538911255912, 0.5734932984751412, 2302478000000, 
-2.128436642356311, -0.7781445045393927, 0.574116538417649, 2302483000000, 
-2.2028193592130836, -0.7749161061152171, 0.57476291638405, 2302488000000, 
-52.096154179862666, -9.892576339268448, 0.5893568527257049, 2302493000000, 
45.3666134964758, 5.060305605564907, 0.5687164168978522, 2302498000000, 
-3.4503718561125343, -0.6828541190233584, 0.5700258950342226, 2302503000000, 
-3.901945676706775, -0.505507785293831, 0.5713676459634517, 2302508000000, 
-2.208784733561752, -0.48664151260225297, 0.5720505680606023, 2302513000000, 
-1.972968461914252, -0.5114247523581877, 0.5724189625030734, 2302518000000, 
-37.11508014423183, -8.51782602460063, 0.5849352210122456, 2302523000000, 
39.31954498866873, 8.231751447034487, 0.5710098305789095, 2302528000000, 
2.37643095928556, -0.692886445278586, 0.5688584996166832, 2302533000000, 
-3.734649970551699, -0.5753111226926475, 0.5702846678183432, 2302538000000, 
-25.5162381319974, -6.427036039687, 0.5777995510526193, 2302543000000, 
24.917900825024837, 6.387607991877554, 0.5666733459980462, 2302548000000, 
-27.116974444840803, -9.398330854602351, 0.5769781237844177, 2302553000000, 
21.693933200288246, 8.97954050170981, 0.5692909829198286, 2302558000000, 
5.559975396475914, 2.1977046664447153, 0.5666208569510461, 2302563000000, 
-11.056053749176291, -4.906776067022881, 0.5681292723300736, 2302568000000, 
-14.226500991406764, -8.024547479075178, 0.5695519269727158, 2302573000000, 
14.368920358237228, 11.330750271769993, 0.5642684858864832, 2302578000000, 
-12.006095986032534, -9.277309792230831, 0.5656628797101029, 2302583000000, 
-7.0438789166953715, -1.3296266847963139, 0.5652190000865528, 2302588000000, 
10.718305192170133, 9.03564273556164, 0.5604439321461459, 2302593000000, 
-6.125068283335114, -5.325262038071029, 0.5594432473743206, 2302598000000, 
-17.71850254437799, -7.408733256511737, 0.5640038130463401, 2302603000000, 
-10.615886007308896, -0.03997311442010972, 0.5678629138683534, 2302608000000, 
-10.244713269654188, -0.084548425652957, 0.5719575849170703, 2302613000000, 
-16.23977111443338, 0.009949411515088097, 0.5780914013972468, 2302618000000, 
-9.800940561113118, 0.053170906844057494, 0.5821421854073957, 2302623000000, 
-13.270303612637473, 0.1427033576907727, 0.587732408098466, 2302628000000, 
-9.868339755174004, 0.15116502620680597, 0.591148086582956, 2302633000000, 
-14.105017112220276, 0.2727870081634407, 0.5992621193983324, 2302639000000, 
-12.355398161919016, 0.24810725848541493, 0.6031633985137357, 2302644000000, 
-9.884912668130609, 0.26407423457166246, 0.6070263316224347, 2302649000000, 
-5.222926865920139, -0.718176678894749, 0.6088837369646001, 2302654000000, 
-2.6032741520776104, -0.4974106945039445, 0.6099779198736055, 2302659000000, 
-3.2519857429048886, -0.5777233825780012, 0.6106445755444855, 2302664000000, 
-3.0883884646094906, -0.5423927864802776, 0.612191918599055, 2302669000000, 
-4.275549002058495, -0.7515657880993453, 0.6134002931286107, 2302674000000, 
-2.705215457540765, -0.420738374702536, 0.6142702809075883, 2302679000000, 
-3.8329968899891314, -0.5959239172013945, 0.6159686271895235, 2302684000000, 
-2.795044918535679, -0.4193096930621656, 0.6168731802933066, 2302689000000, 
-4.395955193685345, -0.6119189178212195, 0.6179438728089045, 2302695000000, 
-3.3273735132314433, -0.424166231705443, 0.6199950115472054, 2302700000000, 
-2.8379024015750174, -0.3449878726075585, 0.6205161717664618, 2302705000000, 
-4.4681407808847355, -0.5376902914428645, 0.6224420520606009, 2302710000000, 
-2.8571579732598167, -0.3431881286761812, 0.6234436032754473, 2302715000000, 
-4.150194734448967, -0.45911406477610495, 0.624479060572145, 2302720000000, 
-3.824464933262788, -0.3404397230005902, 0.6263838542497129, 2302725000000, 
-3.646566434966715, -0.3488510960904428, 0.6273386910807222, 2302730000000, 
-2.9782341939878116, -0.25700188763538717, 0.6288998972366541, 2302735000000, 
-4.311238132994463, -0.3602125769454749, 0.6297459524193666, 2302740000000, 
-3.011358627341703, -0.23200118545505047, 0.6314629489506548, 2302745000000, 
-4.683689359491632, -0.34652487698201484, 0.6329117412716605, 2302750000000, 
-3.05121394687212, -0.19606267492171217, 0.6343931449613077, 2302755000000, 
-4.424805051944755, -0.2572644789061831, 0.6356636947475459, 2302760000000, 
-3.0873109307054216, -0.15998008302418412, 0.6369120744998624, 2302765000000, 
-4.016559346407848, -0.16460593919115288, 0.6384704301453693, 2302770000000, 
-3.918666196574864, -0.16530299894741793, 0.6397534143196182, 2302775000000, 
-3.82032331010479, -0.16921252371397089, 0.641416501474627, 2302780000000, 
-4.884989976113721, -0.15553767827730774, 0.6433329570086197, 2302785000000, 
-3.193593347626281, -0.06556467641031122, 0.6444881667930159, 2302790000000, 
-4.010420801571005, -0.08037220009487914, 0.6457747423876463, 2302795000000, 
-4.7505817398130725, -0.04740927066519621, 0.6471945324443953, 2302800000000, 
-3.5909852085026834, -0.0093063733752972, 0.6490266401031622, 2302807000000, 
-4.835722733317438, -0.021391357497770696, 0.6512558000640205, 2302812000000, 
-21.15624365119033, 0.1481607162950488, 0.6429186031648442, 2302817000000, 
-5.667281874192832, 0.060938783905376014, 0.6407795472400073, 2302822000000, 
-3.299012237721306, 0.021852498835051144, 0.6388332125584556, 2302827000000, 
-4.344665391661067, 0.06830431010958664, 0.6369370331214282, 2302832000000, 
-4.7336141739659725, 0.10496721118403449, 0.6351179731081398, 2302837000000, 
-4.233803213817948, 0.11108167883419104, 0.6338628450677023, 2302842000000, 
-3.782832115974164, 0.14807980126808976, 0.6322229205109656, 2302847000000, 
-4.281442309938316, 0.13718836544691038, 0.6306864724814267, 2302852000000, 
-4.7814096204973575, 0.22945443990981843, 0.6281837932611933, 2302857000000, 
-4.293099523875571, 0.21063747415180595, 0.6270901750827432, 2302862000000, 
-3.485470989951126, 0.1704529087787848, 0.6253740786885877, 2302867000000, 
-4.719581054977841, 0.25791242347466964, 0.6239805298629386, 2302872000000, 
-4.833417028300906, 0.2986762420034936, 0.6215062712492458, 2302877000000, 
-3.5499097750893904, 0.24222355298749768, 0.6206945814430603, 2302882000000, 
-4.426570707256596, 0.3327722255848761, 0.6186543683819803, 2302887000000, 
-4.888205056239489, 0.3743980814562287, 0.6173466891185513, 2302892000000, 
-4.83857787801417, 0.4280175380791988, 0.6152649249890801, 2302898000000, 
-3.6066497824633523, 0.34356883623109163, 0.613825863574452, 2302903000000, 
-4.20290972132824, 0.39366330184286524, 0.6122592744701346, 2302908000000, 
-4.543672409919686, 0.4614637451524165, 0.610553338636375, 2302913000000, 
-4.882090440622906, 0.5223475759951977, 0.6086878644964716, 2302918000000, 
-4.587286826516253, 0.48646208951814046, 0.607251436992055, 2302923000000, 
-4.31210180343957, 0.47619302812539976, 0.6051435460135435, 2302928000000, 
-4.644868740429166, 0.5511782735617412, 0.6037779341216927, 2302933000000, 
-4.955601793462669, 0.6220516343542618, 0.6014592376656972, 2302938000000, 
-4.698179181558311, 0.588818732112465, 0.6005208895044407, 2302943000000, 
-4.6971350408227455, 0.6351500434204675, 0.5978322647153421, 2302951000000, 
-5.424659096184604, 0.7679567146156093, 0.5958807661766923, 2302956000000, 
-3.840785372677193, 0.5244107356413058, 0.5942369287161756, 2302961000000, 
-6.012723511764035, 0.8250780600225319, 0.5923597561241482, 2302966000000, 
-3.8444028645013577, 0.5520438234939163, 0.5909335266694399, 2302971000000, 
-5.522856656654734, 0.8122073934515982, 0.5888707849292953, 2302976000000, 
-3.882120017288294, 0.6143601423714417, 0.5877054891909137, 2302981000000, 
-6.0669361257823375, 0.9565077257822714, 0.5854252926133786, 2302986000000, 
-3.9016217655336094, 0.6524739839442724, 0.5839278682829737, 2302991000000, 
-5.648826813507474, 0.9157579712556427, 0.5817227930937672, 2302996000000, 
-3.9327344132143884, 0.6491770599297807, 0.5801878217807855, 2303001000000, 
-5.095081689188795, 0.8619993075272651, 0.5782842900039216, 2303006000000, 
-4.953020207786339, 0.8611528898155995, 0.5767900247102017, 2303011000000, 
-5.7793278188860215, 1.0339431924157005, 0.5750729881849124, 2303016000000, 
-3.966202590843094, 0.7346648875710424, 0.5733692580798087, 2303021000000, 
-5.140765881259306, 0.9576185037571957, 0.5715359172656902, 2303026000000, 
-5.0228623873494715, 0.974248725491708, 0.5699286227302641, 2303031000000, 
-5.8833725967458, 1.095576971631476, 0.5678788951165809, 2303036000000, 
-4.0579731374127785, 0.7976460234112325, 0.5665087669874989, 2303041000000, 
-6.232850751307834, 1.2200914661226054, 0.5644441602209364, 2303046000000, 
-4.0704295999544176, 0.8169622353736965, 0.5631984545735328, 2303051000000, 
-6.028475802995591, 1.1962515737186143, 0.5609867847427282, 2303056000000, 
-4.101817165640854, 0.8332470068581878, 0.5596077269179113, 2303061000000, 
-6.281009412442347, 1.3218865489458178, 0.557448777006862, 2303066000000, 
-4.116652113506947, 0.8554743509920338, 0.5560294641341816, 2303071000000, 
-5.094004820101007, 1.087395028484317, 0.5537523390121538, 2303076000000, 
-6.337366357213094, 1.4014666281994919, 0.5521344057879968, 2303081000000, 
-5.229088006520703, 1.1332753236840518, 0.5502299305338803, 2303086000000, 
-4.183183643095774, 0.9670556867759907, 0.5491013198346328, 2303091000000, 
-5.159630403954618, 1.1662588792872706, 0.5469221560077601, 2303096000000, 
-6.413284767660012, 1.5082249226696518, 0.5450338442581474, 2303101000000, 
-3.382165928773882, 0.7980876520642979, 0.5442384118897382, 2303106000000, 
-5.3702129891006996, 1.2651837381016464, 0.5422725865152095, 2303111000000, 
-6.277250915836413, 1.4811537808247293, 0.5400558302801979, 2303116000000, 
-4.276619002886078, 1.0243163090407856, 0.5388467886269803, 2303121000000, 
-6.495051771059935, 1.5704987116728537, 0.5364647120422651, 2303126000000, 
-4.311323958150834, 1.0431646593065012, 0.534921964916009, 2303131000000, 
-6.351510044403674, 1.5745810576175467, 0.5335287815584037, 2303136000000, 
-4.301870008501384, 1.0674963391818861, 0.5316465607799561, 2303141000000, 
-5.452739266524412, 1.3550041455183373, 0.5297662179622795, 2303146000000, 
-5.3993490203504795, 1.3496660921111547, 0.5279005418022159, 2303151000000, 
-6.437797853384128, 1.659956983767528, 0.5260574065922339, 2303156000000, 
-4.395022254653796, 1.1240455234528672, 0.5245279768779227, 2303161000000, 
-6.6184203401253106, 1.7111783666244023, 0.5223893129884261, 2303166000000, 
-5.418040195142184, 1.4432046563251826, 0.5204596377068534, 2303171000000, 
-5.4929563334946305, 1.4643012929791055, 0.519097196392196, 2303176000000, 
-4.430391411588172, 1.1850109929483752, 0.5174790179097789, 2303181000000, 
-6.658148770220859, 1.8166506222545542, 0.5153384157011963, 2303186000000, 
-4.427010061564853, 1.202977286836844, 0.5142754762890811, 2303191000000, 
-6.624628818177548, 1.805122169498668, 0.511863628321526, 2303196000000, 
-5.578137316516253, 1.5425664982823604, 0.5094623645869363, 2303201000000, 
-5.570472023782772, 1.5645720612090535, 0.5083155849273447, 2303206000000, 
-4.468434825202072, 1.2663053287752812, 0.5061564520999212, 2303211000000, 
-6.696556453259584, 1.8857508913355197, 0.5047152007633552, 2303216000000, 
-4.473758733480182, 1.2755825760840254, 0.5029697873682187, 2303221000000, 
