acc_x, acc_y, angular_z, stamp, 
-7.48838499656024, 7.115142509345419, 0.3637503570299903, 2294068000000, 
-27.382318809412837, 4.856002010176395, 0.35649632401064063, 2294073000000, 
12.200435051390528, 5.70085271426251, 0.363328697784785, 2294079000000, 
-24.692175858049332, 2.5477390695858935, 0.3521496436141567, 2294084000000, 
15.618034527518734, 7.77454993205786, 0.36300881093568815, 2294089000000, 
-2.831808739812615, 0.7308752308950125, 0.3629528989307283, 2294094000000, 
-13.727575474554024, 9.953233955848338, 0.3607018476212315, 2294099000000, 
1.5619017815668699, 2.0480097792680536, 0.361481143366675, 2294105000000, 
-16.81158596630478, 8.501168317768446, 0.3580625211021666, 2294110000000, 
4.915941674983118, 3.1934499575248987, 0.36121877657695983, 2294115000000, 
-32.22241349107102, 3.1576096584617774, 0.3490656910352931, 2294120000000, 
19.709732108297207, 9.41015514069751, 0.36070145839154866, 2294125000000, 
-1.7552110727388803, 1.098414626975143, 0.3602433775632071, 2294130000000, 
-16.740815446854988, 9.143785251826726, 0.3565202882680328, 2294135000000, 
6.3098067454442015, 3.81006922149423, 0.35953088912299047, 2294140000000, 
-2.8371038655164558, 1.21087644453866, 0.35806508850619234, 2294145000000, 
-8.325540893655765, 11.089542102000662, 0.35948161298650005, 2294150000000, 
-1.9239654464301486, 0.9703418618786283, 0.35884277852114105, 2294155000000, 
-4.117528260443885, 1.1649079619506133, 0.35703694590878005, 2294160000000, 
-4.879446165500976, 11.944764066317207, 0.3604443067269328, 2294165000000, 
0.3275298666096006, 1.0626631551024996, 0.36069481235594275, 2294170000000, 
-31.240841126731166, 4.308264077973219, 0.3470602041320785, 2294175000000, 
25.36287135517469, 11.18950929316176, 0.35893165451654574, 2294180000000, 
0.3182390677282288, 1.7716283619038784, 0.3594677172343898, 2294185000000, 
-3.8602972573826464, 1.235979074726967, 0.35788539665601615, 2294190000000, 
-16.198811565388205, 14.032825425064146, 0.3559221403853702, 2294195000000, 
9.335121103580283, 2.699463773524307, 0.36195788442977045, 2294200000000, 
-3.005661077285199, 0.7049381591299198, 0.3600514763499812, 2294206000000, 
-18.10025994907591, 9.602924442783948, 0.35429857781157725, 2294211000000, 
11.03546790452164, 4.688830710474011, 0.36062226353955673, 2294216000000, 
-4.153075412906646, 0.7267525601380928, 0.3588134290480107, 2294221000000, 
-25.42063969660387, 8.381286237110567, 0.3482889997182287, 2294228000000, 
24.888470220734245, 7.480432825490505, 0.36168611609117274, 2294234000000, 
-2.31342222427354, 0.8374947635613513, 0.3604949810025849, 2294240000000, 
-36.66975281769508, 8.906265445745738, 0.34819764552691035, 2294245000000, 
18.05376273275868, 7.304256157410213, 0.36008193085940554, 2294250000000, 
-2.6040324144197022, 1.28760904197287, 0.3596005076937192, 2294255000000, 
-3.698664862503271, 1.7245283354392311, 0.35824378706451504, 2294260000000, 
-24.81367150821628, 14.686661765020082, 0.3534086857812064, 2294265000000, 
18.222966977807374, 4.706301961004521, 0.36344352824713405, 2294270000000, 
-4.275647196066587, 0.7676674436406313, 0.36132916954257993, 2294275000000, 
-4.526953377919677, 1.7368425827521603, 0.35972137831163986, 2294280000000, 
-22.615542151045155, 13.31778176288599, 0.3542197766411328, 2294285000000, 
13.770376365190673, 4.865069261945423, 0.3620857341740855, 2294290000000, 
-4.223152546830657, 0.8447137673796339, 0.3601922584389236, 2294295000000, 
-2.8895380195246045, 1.8753351251883867, 0.35904375137210065, 2294300000000, 
-36.12018719414383, 13.639292059967174, 0.34900958705699536, 2294305000000, 
24.545706746818137, 7.702404224070253, 0.36267964535132136, 2294310000000, 
-2.934175648666259, 0.8866878616816315, 0.3614928775426823, 2294315000000, 
-4.48922760824019, 1.6918881746312744, 0.35860922590952576, 2294320000000, 
-3.0410858494570134, 2.85535717634766, 0.35832182185365596, 2294325000000, 
-15.409923323494358, 19.325375230512243, 0.3596754927119375, 2294330000000, 
2.4072755466755162, 1.7796981517205366, 0.3612328140972055, 2294335000000, 
-4.865524407615833, 1.311601596455828, 0.35842370744259683, 2294340000000, 
-3.4238619957880223, 2.545821885218218, 0.35733475786887475, 2294345000000, 
-39.7543717308081, 15.147599146832572, 0.34599323020319733, 2294350000000, 
25.8532783921973, 7.811830189610219, 0.36028320446372425, 2294355000000, 
-3.243437060689562, 0.9495465686722406, 0.35917132731468054, 2294360000000, 
-4.568093634668664, 1.7339783112072387, 0.35686267354185996, 2294365000000, 
-3.9009532752497456, 2.848552444637357, 0.3556755329714248, 2294370000000, 
-27.66378475827191, 18.208495280446094, 0.35123253754643957, 2294375000000, 
13.746328291624671, 4.792911916904019, 0.3585108658901184, 2294380000000, 
-4.2515029775156545, 1.0817029380092444, 0.3569262048304371, 2294385000000, 
-4.0238347056155845, 2.0929419985374156, 0.35529424025912726, 2294390000000, 
-2.9817455010641565, 3.066656392160342, 0.35384636427901406, 2294395000000, 
-31.676283916855237, 20.207137752299634, 0.3489054292796967, 2294400000000, 
34.58239259835761, 7.525078403064309, 0.35610493401485194, 2294405000000, 
-0.8503255160140181, 1.3369674569045824, 0.3554688767151941, 2294410000000, 
-4.240852560817725, 2.196422474482328, 0.3536904452574439, 2294415000000, 
-3.0399425976201355, 3.0585312950930876, 0.3533052777750302, 2294420000000, 
-56.4732206072307, 10.938755696762884, 0.33332353604226406, 2294425000000, 
29.778418713794423, 11.423317611404226, 0.3573937499072999, 2294431000000, 
-5.62411219230053, 1.0590152160020727, 0.3532625926214667, 2294438000000, 
-3.8817887966041043, 2.5310700789645475, 0.35211970565773754, 2294443000000, 
-2.854246572157238, 3.306584319707743, 0.35101243035058916, 2294448000000, 
-2.864205877193027, 3.7309319078491305, 0.3505419905589808, 2294453000000, 
-12.280700176833525, 20.097263801643866, 0.3546806586286943, 2294458000000, 
-0.6524957345163775, 1.1126933593908617, 0.35437676803370155, 2294463000000, 
-5.434120727875717, 1.559195222625514, 0.3519693681964284, 2294468000000, 
-4.225705172707228, 2.8188328898444595, 0.35091909758113704, 2294473000000, 
-2.927682107289209, 3.5055681985029317, 0.34974327616802614, 2294480000000, 
-26.51771017115308, 17.74171165639832, 0.34256054989351287, 2294485000000, 
21.94175367196461, 4.310113394269848, 0.3541124359512585, 2294490000000, 
-5.293431544850122, 0.7912262724667684, 0.35229356149965085, 2294495000000, 
-4.6573892061750115, 2.1897305549778543, 0.3498381727669759, 2294500000000, 
-2.971282086480847, 3.2993790640581224, 0.3490041736707418, 2294505000000, 
-2.9075057261543065, 3.7895028729806763, 0.34855408939836674, 2294510000000, 
-31.35754667179536, 20.58486547306021, 0.34102143786155814, 2294515000000, 
27.44323791002025, 5.026061663228102, 0.3529717417294275, 2294520000000, 
-3.910332952907921, 0.9996177180083974, 0.3505600990058881, 2294525000000, 
-4.791011721674095, 2.1693367640418635, 0.3488310772285917, 2294530000000, 
-3.1904904003787666, 3.1114634512300916, 0.3479312749921382, 2294535000000, 
-2.822597702491483, 3.66746465948012, 0.34719392731943505, 2294540000000, 
-3.0729246261291983, 4.107630424354012, 0.3463409639041462, 2294545000000, 
-26.88443624924645, 26.215069785092407, 0.34547629926215684, 2294550000000, 
12.379513446696151, 2.46868689270658, 0.3525181138893382, 2294555000000, 
-6.108071317880326, 1.0710182935633867, 0.3491725789859697, 2294560000000, 
-4.498033527610192, 2.411908626849951, 0.34758864904907544, 2294565000000, 
-2.9300543613071586, 3.3627024536392844, 0.34630516376557485, 2294570000000, 
-3.584672866351169, 3.899866771539578, 0.34549118998735356, 2294575000000, 
-3.2876755804805526, 4.30095491729925, 0.34442835330852506, 2294580000000, 
-33.60258479739901, 33.249931338864194, 0.3438422147362005, 2294585000000, 
13.064796052513257, 2.297905430785534, 0.3507215000668412, 2294590000000, 
-6.4139153663695865, 1.0380742529064457, 0.3478805817337529, 2294595000000, 
-4.606926090659806, 2.471884694584486, 0.34598436242544994, 2294600000000, 
-2.9786332398809336, 3.3648592381129316, 0.3449664827238777, 2294605000000, 
-2.9018080120828857, 4.008768057940445, 0.3439207895843922, 2294611000000, 
-3.262815145544159, 4.444170747176191, 0.34326193333778193, 2294616000000, 
-25.806981261151105, 27.145910772030188, 0.343629039013437, 2294621000000, 
9.781535082388507, 2.376985701086736, 0.3486500159465332, 2294626000000, 
-5.46045664890048, 1.4979520403378492, 0.34638301378294384, 2294631000000, 
-4.077145114340506, 2.663638039982085, 0.34469606343401454, 2294636000000, 
-2.878155849658684, 3.5158252133839034, 0.3437665684345914, 2294641000000, 
-2.862275659829934, 4.015931447206892, 0.34317284966182293, 2294646000000, 
-3.18509580520954, 4.405671202347011, 0.34253921626331557, 2294651000000, 
-50.14703159465172, 25.680025235258462, 0.33045586806613475, 2294656000000, 
32.977792160966516, 6.118654921442195, 0.34838672426868444, 2294661000000, 
-3.4784039433823843, 1.1948974380001887, 0.34656661828058827, 2294666000000, 
-5.1377661427179095, 2.2801360915741054, 0.34438382299356196, 2294671000000, 
-3.3589586115490153, 3.494220868285774, 0.34247318965681467, 2294680000000, 
-2.895236120986875, 4.218912029566436, 0.3419914251833216, 2294685000000, 
-3.256781101748802, 4.629499564526728, 0.34074027199767154, 2294690000000, 
-86.36497446640186, 23.427232443050304, 0.31822404480165417, 2294695000000, 
50.2276984822853, 15.051361921822684, 0.34617364349353397, 2294700000000, 
-0.028510603322539286, 0.7104565775184984, 0.3463356058314637, 2294705000000, 
-6.225028229049141, 1.9955116788783276, 0.3430870272672492, 2294710000000, 
-3.5824816459961846, 3.1665040219611034, 0.34179545486230883, 2294715000000, 
-2.7699752758544576, 3.7348495142351767, 0.3409007599157549, 2294720000000, 
-2.8923382093494827, 4.210641823048472, 0.3404451896184071, 2294725000000, 
-3.229570020163875, 4.64799126758561, 0.33957633188636577, 2294730000000, 
-3.492230172799983, 4.968757085360518, 0.3391969406371177, 2294735000000, 
-18.06642602709661, 26.054630978000308, 0.3426920593405162, 2294740000000, 
4.251669286451659, 1.2658693951230229, 0.3452033265314295, 2294745000000, 
-6.0369606830929206, 1.819560048859639, 0.34295196261256455, 2294751000000, 
-3.9204799644035355, 3.0120577450904054, 0.3407851568157589, 2294756000000, 
-2.7121168316238626, 3.8032948424221487, 0.34032229923409957, 2294761000000, 
-2.810863705502609, 4.216137850054076, 0.33990624394751634, 2294766000000, 
-3.148000679953089, 4.611111170975436, 0.3388632082334854, 2294771000000, 
-3.3732835226915467, 4.911863632071923, 0.33818186773150805, 2294776000000, 
-61.492521819306354, 19.696908699104675, 0.3150506048651932, 2294781000000, 
52.03694838514227, 14.051389037668974, 0.3437467812590015, 2294786000000, 
0.4631063076254722, 0.6363209818500423, 0.34394952239397003, 2294791000000, 
-6.588239794778471, 2.1189167476528628, 0.3409649790306536, 2294796000000, 
-3.796482568660001, 3.1896862032782973, 0.3396215918386, 2294801000000, 
-2.723516394807728, 3.858711105037377, 0.3391064163030138, 2294806000000, 
-2.824222699008981, 4.278071522592812, 0.33877824536981355, 2294811000000, 
-3.123074793844606, 4.659474754625104, 0.33763066776746836, 2294816000000, 
-3.3618787338041005, 5.034562631634738, 0.3367723091958731, 2294821000000, 
-3.6089450151093194, 5.304215456840773, 0.3359047673895771, 2294826000000, 
-32.598149976731854, 34.41307397063973, 0.33597142674045477, 2294831000000, 
13.289103257082846, 0.42552683583022505, 0.3439233002939346, 2294836000000, 
-7.072448761875739, 1.7380119416849122, 0.3414534789269555, 2294841000000, 
-4.8594497951661815, 2.912141783057927, 0.33988943048495257, 2294846000000, 
-2.8965073555023033, 3.6682827709894994, 0.3386558072014815, 2294851000000, 
-2.701238809186065, 4.159492916680575, 0.33809449699095834, 2294856000000, 
-2.9500193678880993, 4.567739792850862, 0.33737261562373366, 2294861000000, 
-3.218540130672132, 4.895061915033462, 0.3368874012328736, 2294866000000, 
-3.458712592614516, 5.259905553783994, 0.33579835873158276, 2294871000000, 
-3.664757720118956, 5.505782570648263, 0.335108632885664, 2294876000000, 
-57.294649284658604, 42.98199001954028, 0.32827401754241786, 2294881000000, 
24.728158893685865, 1.052213568451557, 0.3437207781919505, 2294886000000, 
-6.886211208650785, 1.6023937606298095, 0.34029217870654377, 2294891000000, 
-4.907547896470979, 3.020093318787521, 0.33870002567112456, 2294896000000, 
-2.8592109561894796, 3.7640763660984304, 0.33754408741169883, 2294901000000, 
-2.672296238361797, 4.260082279130834, 0.33697564147578746, 2294906000000, 
-2.956867854203199, 4.631999773576673, 0.33644644789081996, 2294912000000, 
-3.2299673515958394, 4.981761340649218, 0.33549309394074256, 2294917000000, 
-3.4281201231716456, 5.341518693499147, 0.33515754202219783, 2294922000000, 
-3.649976274481681, 5.5814207107039175, 0.3338346115083623, 2294927000000, 
-42.13445249310984, 36.43094781175419, 0.32950003542957434, 2294932000000, 
24.919695199647816, 0.09249506321123528, 0.3421095440768353, 2294937000000, 
-5.238586128835498, 1.8020723862110886, 0.3397028366965878, 2294942000000, 
-4.897384841511262, 2.9931982029898023, 0.33794838380637426, 2294947000000, 
-2.949999819242704, 3.6473245040933917, 0.3369196387149133, 2294952000000, 
-2.587578938730935, 4.198607481906024, 0.3362951874993154, 2294957000000, 
-2.8496635617578905, 4.613759241169903, 0.3359392774959308, 2294962000000, 
-3.162777629717021, 5.0267648377749685, 0.33516743355465406, 2294967000000, 
-3.3949082249299463, 5.323667610057146, 0.3344031319919211, 2294972000000, 
-3.525811280896966, 5.562804052292447, 0.3337645082231891, 2294977000000, 
-4.1492749022192825, 5.749413284013319, 0.3330394490960909, 2294982000000, 
-41.012200845638574, 33.23943051342939, 0.3261599513592838, 2294987000000, 
26.710815036707572, -0.38491116478942616, 0.34210063843025024, 2294992000000, 
-6.952668457902301, 1.695954042002489, 0.3396898028668175, 2294997000000, 
-5.75440247077416, 3.08152086391203, 0.33710932035174795, 2295002000000, 
-3.1213533161254845, 3.6683849491926366, 0.336075589923195, 2295007000000, 
-2.544463966970118, 4.168822213527882, 0.3356336478785947, 2295012000000, 
-2.7990680587651653, 4.629279716150909, 0.33526382651094, 2295017000000, 
-3.038285763388413, 4.9349253899878125, 0.3347126266008665, 2295022000000, 
-3.2909346368061674, 5.332970583087846, 0.33387741621466976, 2295027000000, 
-3.4923226105400134, 5.6064721356476594, 0.33276609703015386, 2295032000000, 
-3.6167644588829275, 5.764929587107509, 0.3326199495068482, 2295037000000, 
-50.25966218582372, 22.28697650061319, 0.3094722907792493, 2295043000000, 
56.47933459614505, 9.937827157259038, 0.3394382983162371, 2295048000000, 
0.9873820594746471, -0.17596728102770517, 0.33996632976161095, 2295053000000, 
-6.656633323356431, 2.889488640295904, 0.33695739812554604, 2295059000000, 
-3.410828606016302, 3.635022592378942, 0.33603435317880515, 2295064000000, 
-2.4902101488629236, 4.060736730813865, 0.33519904658363114, 2295069000000, 
-2.6377129212150776, 4.4578658096820485, 0.334658340422743, 2295074000000, 
-2.936563248861047, 4.876408601967699, 0.33462648888909474, 2295079000000, 
-3.186428782529492, 5.222936860197475, 0.3336703487714494, 2295084000000, 
-3.3601767685796027, 5.522125894716117, 0.33273502926729387, 2295089000000, 
-3.495360318037386, 5.744019597505968, 0.33219860912764354, 2295094000000, 
-3.6528523516930775, 5.982167540947606, 0.33166811526872847, 2295099000000, 
-3.7452256458663773, 6.134297092143286, 0.3308609284050393, 2295104000000, 
-35.45223136273191, 41.69347025426628, 0.33161625810430134, 2295109000000, 
19.79250571812366, -3.467485987021072, 0.3411846178776827, 2295114000000, 
-6.872805770661769, 2.2510888579454518, 0.3379799822992805, 2295119000000, 
-4.982165811716658, 3.49361445947343, 0.33600570341865404, 2295124000000, 
-2.7842799420403512, 3.892589294685144, 0.3355795081416901, 2295129000000, 
-2.480347379602245, 4.284809155530616, 0.3349949530178365, 2295134000000, 
-2.731373709748946, 4.717962710622161, 0.33460950149442215, 2295139000000, 
-2.994148544293406, 5.089980074873155, 0.3335878506771418, 2295144000000, 
-3.229473676688337, 5.392433902795248, 0.3330139630175856, 2295149000000, 
-3.9312658993671725, 5.68094346265154, 0.3325478887258762, 2295154000000, 
-3.5323287048981165, 5.886572344566132, 0.33174522873426127, 2295159000000, 
-3.6172907274064268, 6.10433569462262, 0.33092599089267444, 2295164000000, 
-3.715282693410421, 6.2545859328642885, 0.32996229265584837, 2295169000000, 
-49.27035106132913, 43.73738604010317, 0.32469331758460485, 2295174000000, 
33.39153999762994, -3.7429412817537338, 0.341026806606892, 2295179000000, 
-5.7764404677978325, 1.7770359463865666, 0.3384419708491974, 2295184000000, 
-5.7030025013215395, 3.5667968991493804, 0.3362310708618882, 2295189000000, 
-3.010039282868308, 3.8615907946259043, 0.33498913214789294, 2295194000000, 
-2.3960666641552084, 4.229462706273428, 0.3350310439540993, 2295199000000, 
-2.6069742474845725, 4.682331465105427, 0.3343289962028634, 2295204000000, 
-2.856777281025274, 5.0285681511628555, 0.33344767387254204, 2295209000000, 
-3.105282795383462, 5.355578836149076, 0.3332767984983052, 2295214000000, 
-3.5846377580390265, 5.630675942393233, 0.33209086266958543, 2295219000000, 
-3.6353362479188895, 5.951324303985137, 0.3312037186083425, 2295224000000, 
-3.4958546448588548, 6.109276706131555, 0.3309480964889411, 2295229000000, 
-3.6261884763744496, 6.2599698424342, 0.3299265014131652, 2295234000000, 
-3.737712080448854, 6.401944796316825, 0.32939257954686435, 2295239000000, 
-49.285573971921146, 45.50831276395604, 0.3246016928817647, 2295244000000, 
33.48171170019428, -5.178819779416362, 0.3400252286101722, 2295249000000, 
-5.747655259508051, 1.9144121395409948, 0.3373729063383428, 2295254000000, 
-5.673254743205346, 3.751442585222426, 0.33551181685943804, 2295259000000, 
-2.9517385487562664, 3.944470954195955, 0.33503019731931566, 2295264000000, 
-2.329652222674428, 4.237600090595788, 0.33472597800507725, 2295269000000, 
-2.5521091529144533, 4.674543869320811, 0.33385508662367025, 2295274000000, 
-2.823946307840494, 5.041489801054558, 0.3335869269783672, 2295279000000, 
-3.0749059626485264, 5.421997893566729, 0.33306192489775177, 2295284000000, 
-3.2449096847511654, 5.658783561984498, 0.33292184286061843, 2295289000000, 
-3.359075002762572, 5.886264523307223, 0.3312116121917811, 2295294000000, 
-3.5170885615842007, 6.131208069637568, 0.3308218202552243, 2295299000000, 
-3.565733315491081, 6.310727034719391, 0.33005258758970546, 2295304000000, 
-3.6361599829419387, 6.4149520866245835, 0.3299495270078501, 2295309000000, 
-3.6996781017674825, 6.559277974412078, 0.32883754847768254, 2295314000000, 
-43.234886340091876, 55.76713731391261, 0.3317588319462308, 2295319000000, 
19.546791530160373, -6.660319948663943, 0.340599671234572, 2295324000000, 
-6.791076635795818, 2.9159841008121443, 0.33743530922247644, 2295329000000, 
-4.863851316091886, 3.9621963122046404, 0.3356181276547435, 2295334000000, 
-2.6351339179405926, 4.019719386633441, 0.3348971200576193, 2295339000000, 
-2.3120801609862704, 4.33872708410897, 0.3345449727926147, 2295344000000, 
-2.5335123473409884, 4.776051010982978, 0.3341947572178587, 2295349000000, 
-2.8209310774915277, 5.12069328495714, 0.3336111266087309, 2295354000000, 
-3.012557202017348, 5.448866716154982, 0.3328968581215283, 2295359000000, 
-3.1276041985170853, 5.713632491449417, 0.3326995512939453, 2295364000000, 
-3.2851294801773943, 5.960774205095929, 0.33196379375911833, 2295369000000, 
-3.4152875065849813, 6.139850663875416, 0.33122551838045583, 2295374000000, 
-3.5082099839853296, 6.3044517426992215, 0.3309171364373857, 2295379000000, 
-3.55551148958972, 6.420929074728299, 0.3298816212399606, 2295384000000, 
-3.6317713184631835, 6.542472064414494, 0.32897660875019763, 2295389000000, 
-3.6453875801326303, 6.6448584744309604, 0.3287704483797084, 2295394000000, 
-24.090848286310873, 42.461426864414065, 0.3363510782888924, 2295399000000, 
8.842707987307369, -4.1183674131091985, 0.3403152175428551, 2295404000000, 
-7.0728708764865535, 3.6738087771829733, 0.33697946634442516, 2295409000000, 
-4.204867217496685, 4.099659885968994, 0.3360656938836107, 2295414000000, 
-2.4115989788269654, 4.107573489718325, 0.3352253266401811, 2295419000000, 
-2.6684932412073405, 4.4166276365771635, 0.33445278994204314, 2295424000000, 
-2.655764462350086, 4.80232317411663, 0.33467646601884016, 2295429000000, 
-2.7499254031808693, 5.180634968492139, 0.33366573829559026, 2295434000000, 
-2.9170918543952027, 5.5026172486540705, 0.33340625768393256, 2295439000000, 
-3.1297280422787064, 5.750244643216755, 0.33242757131689343, 2295444000000, 
-3.251187766792119, 5.988573172926302, 0.33254001739894296, 2295449000000, 
-3.334739612408884, 6.182688522910089, 0.3314786425103919, 2295454000000, 
-3.435760832714087, 6.324121499974501, 0.33049764453982317, 2295459000000, 
-3.5178113683889616, 6.487112583813856, 0.3302230333409542, 2295464000000, 
-3.551873786674983, 6.571850070024152, 0.3296720296581373, 2295469000000, 
-3.610916938278364, 6.623623000742063, 0.32907823608810677, 2295474000000, 
-79.19921074431734, 47.46654903041206, 0.3099597688909677, 2295479000000, 
58.415081031204906, -2.186272651883652, 0.33936904135422336, 2295484000000, 
1.3932248728010102, -1.2259237320627094, 0.33952175602077395, 2295489000000, 
-6.566625814653989, 4.273900301888798, 0.3368946777275605, 2295494000000, 
-3.520633152024406, 4.176484320129501, 0.33604077499360857, 2295499000000, 
-2.2259638158376056, 4.162628510775757, 0.33539607297697466, 2295504000000, 
-2.2947843529379544, 4.542170333663199, 0.3353744904376769, 2295509000000, 
-2.5420299824948684, 4.909343945882488, 0.33446993628014043, 2295514000000, 
-2.769554683768906, 5.22083077319021, 0.3341920925359882, 2295519000000, 
-3.1790388195340307, 5.6734357410028196, 0.3329686821764785, 2295529000000, 
-3.182846405784165, 6.028398716822499, 0.332046041124461, 2295534000000, 
-3.2780296550816925, 6.200360572892351, 0.3317037279283768, 2295539000000, 
-3.383558341605727, 6.404786955726347, 0.3310195143396938, 2295544000000, 
-3.408526120419174, 6.446840568363549, 0.33028813272889884, 2295549000000, 
-3.4933771413354404, 6.570697986553388, 0.33003717526384474, 2295554000000, 
-3.4914905386637733, 6.619734747273154, 0.32925914596964406, 2295559000000, 
-3.5875789853063065, 6.717612228246307, 0.3287107814762948, 2295564000000, 
-64.8837807709594, 51.61461980845446, 0.31809543987363686, 2295569000000, 
40.703403122076885, -8.432922683767517, 0.34064958083432845, 2295574000000, 
-5.273782749832756, 2.729305402082458, 0.3385634169142609, 2295579000000, 
-5.565842178066562, 4.672994331315319, 0.3372091687671789, 2295584000000, 
-3.0353203859056883, 4.183196178068266, 0.33608527433829544, 2295589000000, 
-2.1469832094355, 4.239584308379919, 0.33587926987652084, 2295594000000, 
-2.263122801463588, 4.581565113030127, 0.33589621189114244, 2295599000000, 
-2.474811024267926, 4.956686647202907, 0.3353406171580464, 2295604000000, 
-2.7419248749850005, 5.285541767690451, 0.3347355961317977, 2295609000000, 
-2.872509536439227, 5.562003749735851, 0.33458605746883174, 2295614000000, 
-3.009413678180563, 5.803945723275133, 0.33418048673059, 2295619000000, 
-3.11116201421742, 6.0152897115739545, 0.33344439937261344, 2295624000000, 
-3.563066887822775, 6.199817966542715, 0.3326913953712613, 2295629000000, 
-3.3259767990091, 6.3293907598067145, 0.3319318031073586, 2295634000000, 
-3.3138696972859734, 6.451802687477262, 0.3313971815827539, 2295639000000, 
-3.3660401020525, 6.5190005624865925, 0.3310210506257175, 2295644000000, 
-3.4259028115229726, 6.578929860994426, 0.330314321390065, 2295649000000, 
-3.4513368861733627, 6.678538308898557, 0.32981112245600797, 2295654000000, 
-3.511976526198452, 6.726654963755419, 0.3291942352245546, 2295659000000, 
-64.09538276404108, 54.19167032300209, 0.31970344340392076, 2295664000000, 
65.36939185987013, -11.244547168081084, 0.33815470876651715, 2295669000000, 
3.8463726380007524, -3.374830327181254, 0.34033767382611024, 2295674000000, 
-5.738278213931429, 4.991323980140523, 0.33800039358483913, 2295679000000, 
-2.947752738348645, 4.312702063600151, 0.33722934488452583, 2295684000000, 
-2.1072458693500864, 4.1967114904607925, 0.3369285660778725, 2295689000000, 
-2.2046449499017196, 4.5456084257636915, 0.33655362942091527, 2295694000000, 
-2.467885520992569, 4.918589855422099, 0.3362875163071043, 2295699000000, 
-2.6290028835488792, 5.2194652699811765, 0.3355033012528572, 2295704000000, 
-2.784502006563351, 5.502277684585066, 0.33505230824545296, 2295709000000, 
-2.9199332101220357, 5.73917182686851, 0.3343398537969643, 2295714000000, 
-3.006181588137075, 5.97167127452408, 0.3342291910176726, 2295719000000, 
-3.1264171862217, 6.158306757571121, 0.3330159231398097, 2295726000000, 
-3.6855070601547695, 6.331272709218132, 0.33212008371525814, 2295731000000, 
-3.319508416190641, 6.408831727988889, 0.3318031956049095, 2295736000000, 
-3.2879396390155566, 6.473473283031182, 0.3313930500284379, 2295741000000, 
-3.344925153153284, 6.574655541191864, 0.3305055979735923, 2295746000000, 
-3.352586663576532, 6.596700625562699, 0.3298964001304604, 2295751000000, 
-3.435323400086104, 6.707093722799582, 0.3290014210019915, 2295756000000, 
-3.430185809690602, 6.737801649834416, 0.32829796902691155, 2295761000000, 
-27.097488851616024, 44.23551787126825, 0.3347728579218919, 2295766000000, 
22.453953217155007, -17.94566830096494, 0.3418199603080819, 2295771000000, 
-5.144447371247954, 3.0572560623537295, 0.33962664428368733, 2295776000000, 
-4.986613885023029, 5.186066674442038, 0.33816791853913925, 2295781000000, 
-2.5712403258136507, 4.238820035811455, 0.33748303441449573, 2295786000000, 
-1.9509272446200194, 4.161293408685636, 0.3374788197320654, 2295791000000, 
-2.197481943273005, 4.531575962317636, 0.3370146985600442, 2295796000000, 
-2.4079419189076128, 4.937474709560897, 0.33634650471856903, 2295801000000, 
-2.638118635619945, 5.288753712551838, 0.3357794532758711, 2295807000000, 
-2.763705261035298, 5.566368708731307, 0.3353883250143694, 2295812000000, 
-2.856478066834968, 5.749314158604781, 0.33489328418188113, 2295817000000, 
-2.949297050011152, 5.9447340699619735, 0.334284919420332, 2295822000000, 
-3.0707357008814946, 6.096523357336213, 0.33381820419292, 2295827000000, 
-3.5110652233432167, 6.214659156738284, 0.33318616901580006, 2295832000000, 
-3.2288708844435736, 6.337443746271132, 0.33275249258589085, 2295837000000, 
-3.1903375923083024, 6.404777203956607, 0.3322091222300023, 2295842000000, 
-3.234036340650963, 6.455273205051669, 0.3314632219197682, 2295847000000, 
-3.266839616982822, 6.503283343331694, 0.3307538186662581, 2295852000000, 
-3.3107184123650932, 6.586569934433373, 0.33036844760484996, 2295857000000, 
-3.3491757732084606, 6.619404798682478, 0.329653623956897, 2295862000000, 
-3.353994148009081, 6.621648829931413, 0.32903171840230516, 2295867000000, 
-43.6521532505365, 56.38303191760486, 0.3302861169379676, 2295872000000, 
29.423375200935677, -18.733202910936008, 0.34228948564365136, 2295877000000, 
-4.9903345872195874, 3.3183143701067155, 0.3406734072214423, 2295882000000, 
-4.82663939384761, 5.2148188374438105, 0.33874515742475236, 2295887000000, 
-2.4881092029020793, 4.175409580308381, 0.33827604492502744, 2295892000000, 
-2.1342750285860186, 4.123381329931732, 0.33761119650000676, 2295898000000, 
-2.3432760180443903, 4.5366536202725225, 0.3376556713769632, 2295903000000, 
-2.3391063519807367, 4.8812543694883495, 0.3369296608882478, 2295908000000, 
-2.5242100775682337, 5.1799250819691975, 0.3365383269192475, 2295913000000, 
-2.6958393226867967, 5.409304017381152, 0.3354591562031502, 2295918000000, 
-2.7791960758424437, 5.6270928075669895, 0.33522278518142223, 2295923000000, 
-2.8953342726706026, 5.779363836426852, 0.3348622604193051, 2295928000000, 
-2.9371751897296337, 5.9406242698915035, 0.33427326447289046, 2295933000000, 
-2.999362163715088, 6.079622055099706, 0.3337883965916524, 2295938000000, 
-3.0779486241140868, 6.136149798233819, 0.33327965031174395, 2295943000000, 
-3.1095367915149, 6.233920261082857, 0.33236507680140126, 2295949000000, 
-3.16740910538865, 6.307323728644113, 0.3319362840674765, 2295954000000, 
-3.2126596515630106, 6.388867669961128, 0.3311577842016811, 2295959000000, 
-3.2204323011568166, 6.432027211202606, 0.3305149692441875, 2295965000000, 
-3.27322772845985, 6.470529988196243, 0.32988041672959245, 2295970000000, 
-3.2598709102591252, 6.44099209136661, 0.3290801634405895, 2295975000000, 
-74.30468720210435, 66.22914156696662, 0.32169021366664696, 2295980000000, 
44.807098334362806, -15.21115807878947, 0.34184598113392356, 2295985000000, 
-2.918163127711178, 1.7730929229873464, 0.34128317420425297, 2295990000000, 
-5.159282301987175, 4.746055785975507, 0.33883630966510786, 2295995000000, 
-2.8026546300634667, 3.9985262147951905, 0.3381681468613889, 2296000000000, 
-2.1341932922282214, 3.89558091557403, 0.33787557708608595, 2296005000000, 
-1.995442213268313, 4.237898023100033, 0.33733231692342946, 2296010000000, 
-2.2104295756175474, 4.649555166587673, 0.33677456984566906, 2296015000000, 
-2.425091789568759, 4.9306774316056305, 0.336628664566887, 2296020000000, 
-2.560147867863355, 5.180467436183808, 0.33619080889069, 2296026000000, 
-2.6901579862988685, 5.4107132714333765, 0.33520672325716866, 2296031000000, 
-2.7687278166140503, 5.594556116761202, 0.33491928204743576, 2296036000000, 
-2.865420155720537, 5.694948317355807, 0.3344556955937709, 2296041000000, 
-2.930532879386163, 5.820358321704714, 0.3339443189839917, 2296046000000, 
-2.9671836288456173, 5.928738036263317, 0.3331152077718179, 2296051000000, 
-3.040738387518498, 6.040074355715135, 0.33204450957627607, 2296056000000, 
-3.0558994770472814, 6.101847332539136, 0.33195470644097874, 2296061000000, 
-3.0984604601016192, 6.137482967122478, 0.33112139435747756, 2296066000000, 
-3.1173506352786315, 6.187980330733048, 0.33063084754631145, 2296071000000, 
-3.1432176651038484, 6.210672317816478, 0.3300769504332382, 2296076000000, 
-3.129723741842828, 6.225939052456254, 0.3292353870389141, 2296081000000, 
-3.1302947185320007, 6.229672271560485, 0.3286355941578727, 2296086000000, 
-16.94962043718354, 31.50018473202436, 0.33812657789607103, 2296091000000, 
9.407550957268716, -2.7238346333878702, 0.3412709150140209, 2296096000000, 
-5.738740018881773, 3.7982468594156855, 0.33926031519377997, 2296101000000, 
-4.385649165493858, 3.8668950623193385, 0.3376839013357432, 2296106000000, 
-2.0876512509867693, 3.5636804321049858, 0.33733948663608676, 2296111000000, 
-1.7918541492203697, 3.8673990160409013, 0.33700309085320806, 2296116000000, 
-2.0326453670524196, 4.225109396920613, 0.33668881766543446, 2296121000000, 
-2.214464737956073, 4.521799992072216, 0.3359033041612145, 2296126000000, 
-2.3876611113973034, 4.842598268787579, 0.33567331589363314, 2296131000000, 
-2.534735767143362, 5.062756811849721, 0.3357101208535336, 2296136000000, 
-2.6342139916152245, 5.261348944321954, 0.3349341910630752, 2296141000000, 
-2.699480244183888, 5.377821243554991, 0.3344282459018403, 2296146000000, 
-2.790382733913018, 5.517466030802323, 0.3341296633886135, 2296151000000, 
-2.8146193081391733, 5.602668709997289, 0.3335040578641806, 2296156000000, 
-2.8836246243609684, 5.673533873130002, 0.3327019351298466, 2296161000000, 
-2.9332541698749437, 5.796733606259395, 0.332096723341753, 2296166000000, 
-2.9562892808286323, 5.822024823106395, 0.33158193112446127, 2296171000000, 
-3.0072827203680164, 5.864759859319419, 0.3304334383792121, 2296179000000, 
-3.0627277885713493, 5.921253361822339, 0.3294501837584068, 2296184000000, 
-3.080712231387927, 5.943721965349315, 0.3289277228014842, 2296189000000, 
-58.72605506413789, 44.67987992921259, 0.31929102135183957, 2296194000000, 
44.83000016586124, -8.190109801179238, 0.3407926649344557, 2296199000000, 
-2.8398654380646975, 2.4369006044844514, 0.33963786561767, 2296204000000, 
-5.480392883011037, 3.4495830384662343, 0.33753888293471096, 2296209000000, 
-2.610873474630045, 3.3024948676752754, 0.3368088706459906, 2296214000000, 
-1.7625837435660454, 3.534741755020094, 0.3364892358792566, 2296219000000, 
-1.8966596024251998, 3.8868981792766473, 0.33628666530921, 2296224000000, 
-2.0843929525770624, 4.264495596981184, 0.3356615117134809, 2296229000000, 
-2.2666954076964836, 4.487551460698151, 0.33478315530949804, 2296234000000, 
-2.395959387991397, 4.727205402718741, 0.3345654762787175, 2296239000000, 
-2.5229311373528303, 4.890103358426859, 0.3337818542026516, 2296244000000, 
-2.604681534297446, 5.079670426161032, 0.3333521335025812, 2296249000000, 
-2.7081569138346433, 5.210465162105689, 0.3328376242676661, 2296254000000, 
-2.7618240403593655, 5.3125829033973675, 0.3320550977319997, 2296259000000, 
-2.823603707887964, 5.407902722640878, 0.3312548046437802, 2296264000000, 
-2.8688260130389835, 5.467866409716315, 0.33094042540325563, 2296269000000, 
-2.8792536356372547, 5.530383208322, 0.3299470799012229, 2296274000000, 
-2.8911804762125914, 5.5510686524442185, 0.32953478543077436, 2296279000000, 
-2.926032444164105, 5.567215161388445, 0.3284262313497655, 2296284000000, 
-2.9652666712061015, 5.587577154891064, 0.3282229279481581, 2296289000000, 
-25.325965554213756, 33.12548640906658, 0.3326398650046901, 2296294000000, 
13.12073685901157, -0.17330514166471583, 0.3395976420083317, 2296299000000, 
-5.248970251020534, 2.8753358012892476, 0.33729845895984867, 2296304000000, 
-3.938052421173125, 3.0193719688900615, 0.3362373025704341, 2296309000000, 
-1.8794617926515063, 3.281550689435069, 0.3352101804637161, 2296317000000, 
-1.8573075223552387, 3.7345580041948834, 0.3349932437304649, 2296322000000, 
-2.028819775957778, 4.001528408713594, 0.3342451618006903, 2296327000000, 
-2.2345474024065552, 4.266183386854977, 0.3341246693068153, 2296332000000, 
-2.3410883175923627, 4.474235392336526, 0.3334903975911059, 2296337000000, 
-2.482687900476269, 4.621213646365999, 0.33333040032107525, 2296342000000, 
-2.530908286487481, 4.75434848731372, 0.33267849703781144, 2296347000000, 
-2.602733458524357, 4.898590061077078, 0.3319547056415896, 2296352000000, 
-2.681410833974988, 4.999083630288702, 0.33115471668651164, 2296357000000, 
-2.71217912647985, 5.046302538379686, 0.33063591982136825, 2296362000000, 
-2.7811671670535687, 5.11945096734398, 0.330228869290661, 2296367000000, 
-2.8481392687345672, 5.192439054666534, 0.32959251779845644, 2296372000000, 
-2.8406878763020944, 5.212747915740371, 0.3288106820645853, 2296377000000, 
-44.235626264261505, 31.134595808328402, 0.3230794666608789, 2296382000000, 
40.971374574011634, 0.4152938808083893, 0.3392917379859428, 2296387000000, 
-2.563961716782459, 2.330049725632938, 0.3382474451104201, 2296392000000, 
-5.628642676027265, 2.5719621357166664, 0.3361286347062596, 2296397000000, 
-2.700202228410534, 2.775483677116978, 0.33470799076416224, 2296402000000, 
-1.7240745829256623, 3.0966432678488616, 0.33467872232563056, 2296407000000, 
-2.15444316849171, 3.4602377480153246, 0.333996284888805, 2296412000000, 
-1.9944333032292196, 3.737047070211787, 0.3335024083553073, 2296417000000, 
-2.152268253504707, 3.978868332473002, 0.333410473088509, 2296422000000, 
-2.247238447512578, 4.157192142846978, 0.33235176602502503, 2296427000000, 
-2.3996515461651517, 4.336816934294235, 0.3319652441610455, 2296432000000, 
-2.488080389619577, 4.450384809384348, 0.3311751850005508, 2296437000000, 
-2.5627807522618484, 4.5779722516654475, 0.330822516641517, 2296443000000, 
-2.6507053158492577, 4.661952271726624, 0.3300126624169921, 2296448000000, 
-2.6975119490194084, 4.735608337001455, 0.32936264551139477, 2296453000000, 
-2.7379226535080208, 4.801150225399256, 0.3285593849499536, 2296458000000, 
-68.63463232090888, 32.02807361975774, 0.30988348388403303, 2296463000000, 
47.46012153755891, -0.6043035912201965, 0.3383835403250052, 2296468000000, 
-1.3552211794717084, 2.009603650818887, 0.3377161696767383, 2296473000000, 
-6.41203907525979, 2.14625037448189, 0.3351711370042492, 2296478000000, 
-3.2492813660172994, 2.465437815155518, 0.3339673087042633, 2296483000000, 
-1.816136967469667, 2.842618568692383, 0.3331378453726203, 2296488000000, 
-1.7366504386248465, 3.1846070925847965, 0.33301702696220636, 2296493000000, 
-1.9023515922947825, 3.476035939413844, 0.33325610979026976, 2296498000000, 
-2.0800693382799404, 3.649900504356896, 0.33204155247879624, 2296503000000, 
-2.234049504034983, 3.8774511342731555, 0.3319283026001815, 2296508000000, 
-2.6160303178738475, 4.0002945767632605, 0.3311753933757534, 2296513000000, 
-2.4649872531677377, 4.126864411791334, 0.3308587726244223, 2296518000000, 
-2.444986236326447, 4.187339979718682, 0.33055362344769956, 2296523000000, 
-2.524747997861392, 4.273080018959997, 0.3295394157005602, 2296528000000, 
-34.08274200348379, 16.41868078468113, 0.31258015244741943, 2296536000000, 
56.949384071220074, 2.332778070846797, 0.33568380822051835, 2296541000000, 
2.2203473178004582, 1.4529841920432598, 0.33700846284062624, 2296546000000, 
-6.29299720522338, 1.7390127552849917, 0.3342226056907218, 2296551000000, 
-3.177604220976778, 2.225859780589449, 0.33329105755591076, 2296556000000, 
-1.7603838899832578, 2.6170353130587096, 0.3327600174476932, 2296561000000, 
-1.6999945705214918, 2.961601710295744, 0.33220764610030606, 2296566000000, 
-1.8955695152067222, 3.161680930664484, 0.3319385615951924, 2296571000000, 
-2.069191200048211, 3.3889336606240685, 0.33143960964194336, 2296576000000, 
-2.2096184903696203, 3.5779172642156394, 0.3307984683092304, 2296581000000, 
-2.3013933907899453, 3.718075188271859, 0.33037964749997467, 2296586000000, 
-2.352331519292462, 3.776911832377626, 0.33036069374442834, 2296591000000, 
-2.4018212216964323, 3.8896036541817356, 0.3289080143690227, 2296596000000, 
-2.539726231389346, 3.9463525599402476, 0.32807071361823054, 2296601000000, 
-17.660513720319155, 23.275239323219562, 0.3321351031106743, 2296606000000, 
10.369908796718937, 1.1154780202090628, 0.3373765501824063, 2296611000000, 
-7.0751609316570985, 1.2678307084603264, 0.33345341480535995, 2296616000000, 
-3.5757894409449493, 1.9799684755411429, 0.3322551944192402, 2296621000000, 
-1.8641147235800104, 2.3482120072739687, 0.3312954950444916, 2296626000000, 
-1.625987822603256, 2.6546807791113105, 0.3312267165228282, 2296631000000, 
-1.8602787884656644, 2.8947141657671223, 0.3308813979929009, 2296636000000, 
-2.047716259905054, 3.1419221386817466, 0.3304460473959219, 2296643000000, 
-2.209736480010681, 3.293568592823829, 0.3297657169625932, 2296648000000, 
-2.2975328423163885, 3.409584957238382, 0.32917907697683774, 2296654000000, 
-2.4079300105179415, 3.558772307582073, 0.328222503370558, 2296659000000, 
-97.11179224615191, 28.991901823269508, 0.31049110786561046, 2296664000000, 
37.31043856744134, 3.933830009973513, 0.3373852269184103, 2296669000000, 
-6.841046750069187, 0.5425126799384692, 0.3338456580112104, 2296674000000, 
-4.708063182940444, 1.512760084113197, 0.3321278964782065, 2296679000000, 
-2.4230942552113106, 2.0962982785018713, 0.3318560245308064, 2296684000000, 
-1.614887818796664, 2.3631747098913234, 0.3311734153508972, 2296689000000, 
-1.7561764081628206, 2.699085757401526, 0.33063226337651946, 2296696000000, 
-2.0010092962788644, 2.8655759310633226, 0.3299737892187217, 2296701000000, 
-2.0918133990291667, 2.9727642236750866, 0.3292199313453327, 2296706000000, 
-2.2429740812153756, 3.0881678489151625, 0.32882577329048585, 2296711000000, 
-56.7448304494002, 20.56727606718724, 0.3160439843874046, 2296716000000, 
23.591706102762362, 2.6724959455139206, 0.33559512597905866, 2296724000000, 
-6.358657875266528, 0.5984814800188725, 0.3319048213453778, 2296729000000, 
-2.792781133112508, 1.6653698602260802, 0.33046945081004375, 2296734000000, 
-1.6283903571159697, 2.0936847585022447, 0.3302518080127345, 2296739000000, 
-1.6204406076939577, 2.3365255884409977, 0.32997950646036256, 2296744000000, 
-1.8489405554126361, 2.500156452476084, 0.3293378066321984, 2296749000000, 
-2.0291695027525622, 2.6442853429949436, 0.32824046436785315, 2296755000000, 
-57.361029651330824, 8.935874250258005, 0.30814884243250584, 2296760000000, 
58.63308536199148, 13.768943208716111, 0.33301925581310104, 2296765000000, 
3.0583800080575827, 0.46340325628181034, 0.3345985825532965, 2296770000000, 
-7.004247970733288, -0.15723455374019554, 0.3310888875280598, 2296775000000, 
-3.395512004657076, 1.2210442986908912, 0.32966934309186574, 2296780000000, 
-2.035532866487355, 1.8463023833469012, 0.3287980263671849, 2296785000000, 
-1.6307099561793754, 2.1081572235495356, 0.3283576128710303, 2296790000000, 
-1.7365514221220502, 2.2157974128507933, 0.3279366129357271, 2296795000000, 
-1.9518381828998201, 2.38287355124461, 0.3273399267739932, 2296801000000, 
-13.597951592247778, 12.592258022252174, 0.3275104362196381, 2296806000000, 
12.105895915153454, 2.782590228803561, 0.3338488710674309, 2296811000000, 
-7.330779395764269, -0.9361583930985139, 0.33007980105887386, 2296816000000, 
-4.085888023824113, 0.627298744211348, 0.3287010962519743, 2296821000000, 
-1.7604266120134353, 1.6906015143857593, 0.3277345723052868, 2296828000000, 
-1.6353350928602177, 2.0004804927247473, 0.3274094315107098, 2296833000000, 
-1.742001807815948, 2.2351991903160986, 0.3269571177372635, 2296838000000, 
-13.564912682757138, 11.64244028250765, 0.32613785836456305, 2296843000000, 
8.49452898730821, 3.5197083824872, 0.33098001220223594, 2296848000000, 
-6.092541960929567, -0.8778311197473146, 0.32835529071977604, 2296853000000, 
-3.443534479676401, 0.4787407630197075, 0.32687048206643543, 2296858000000, 
-1.7233046299000145, 1.4186207146152727, 0.32592057650893425, 2296863000000, 
-1.4582757964357587, 1.8292136542263886, 0.32577335193965423, 2296868000000, 
-63.43455168010707, -6.238640501981588, 0.3039629520240282, 2296873000000, 
43.376783868268916, 18.78598131106232, 0.326610237296184, 2296878000000, 
-1.2220773331934627, 0.950019222887061, 0.3262487887876602, 2296883000000, 
-4.923170339269273, -1.0070538412637045, 0.3240869196350114, 2296888000000, 
-2.2092267435019464, 0.6662238771783445, 0.3230369309244225, 2296893000000, 
-1.2832112976521435, 1.5549963644988534, 0.3225336445751805, 2296898000000, 
-2.5191498788547215, 2.4474363938585713, 0.3214079774335067, 2296903000000, 
-3.172626610484069, 11.068961758231817, 0.32176903757922964, 2296908000000, 
-3.296798820503485, 0.15903174438190337, 0.31952539027436627, 2296913000000, 
-4.340120728639358, -1.4263017230703505, 0.317911129397566, 2296918000000, 
-2.1187576029806645, 0.30497217557362183, 0.31689512622249183, 2296923000000, 
-1.7239745122831716, 1.7613798268056662, 0.31622962920806563, 2296928000000, 
-34.05656085166009, -9.889189862797803, 0.3004155854521771, 2296933000000, 
29.557755628061614, 22.16722025566553, 0.3153884460427976, 2296938000000, 
-5.1654068733428, -1.8012987901048185, 0.31241777534369863, 2296943000000, 
-2.661044222076219, -0.6573478392984704, 0.31087642540424165, 2296948000000, 
-2.103192368041628, 1.436980656060848, 0.3097781331387014, 2296953000000, 
-41.81021265655808, -14.5307353463053, 0.28909326777981337, 2296958000000, 
38.795490134039596, 26.39586635783007, 0.30850370222501955, 2296963000000, 
-5.13544989944826, -1.724003465645595, 0.3057378263932235, 2296968000000, 
-3.4862237724846703, -1.01712261395041, 0.30401516437553755, 2296973000000, 
-2.20787806213788, 0.7553933920381969, 0.30288631535725824, 2296979000000, 
-37.8193545926889, -13.464467611626048, 0.2840275024097333, 2296984000000, 
33.875521244495914, 22.877412404917422, 0.3013917408662203, 2296989000000, 
-4.417422300420525, -1.54011019381389, 0.29900376459767297, 2296994000000, 
-2.7915282742908305, -0.343552847037672, 0.29695374530014124, 2296999000000, 
-31.11990310827998, -12.321807867294304, 0.28114100757347915, 2297004000000, 
28.185294872117932, 20.7385390434895, 0.29547740925437416, 2297009000000, 
-4.986646614747832, -2.193618402269791, 0.293692453776596, 2297014000000, 
-3.092100603328212, -0.6647867353021797, 0.2917539870316985, 2297019000000, 
-16.581101826797962, -9.47049134009139, 0.2826846609483055, 2297024000000, 
10.45870988181182, 13.462174847212422, 0.289545258735391, 2297029000000, 
-4.522766320192894, -2.094503774456614, 0.28794058088008173, 2297034000000, 
-4.821937989194494, 1.7099489084115882, 0.28462012991903934, 2297039000000, 
1.118109283309089, 2.46707902377869, 0.2854095833329136, 2297044000000, 
-29.47966190588357, -11.984787659802045, 0.2706506673565645, 2297049000000, 
24.757348788156587, 15.369274784226002, 0.282599738702919, 2297054000000, 
-3.767090661964417, -1.201366319756808, 0.28109517838960824, 2297059000000, 
-6.041390847722913, -0.759146720212038, 0.27754177816513853, 2297064000000, 
1.5869665232718768, 3.8059781577343283, 0.27832011865803924, 2297069000000, 
-3.6198542543901007, 0.8556020923563568, 0.2762563228160867, 2297074000000, 
-1.9406123478810091, -0.010055331750017786, 0.2751089227116367, 2297079000000, 
-2.150325865790641, 1.4911628124438554, 0.27364071732299744, 2297085000000, 
-5.894753188839644, -1.2079930724211447, 0.27035296358682787, 2297090000000, 
-20.28245339462662, -6.586847342391645, 0.2624260711951948, 2297095000000, 
-0.26301907405497105, 1.7348753962847039, 0.26158687096663813, 2297100000000, 
13.85881330141068, 8.018717594711138, 0.26692017779182475, 2297105000000, 
-13.0913756016553, -4.22799634642385, 0.25881815908545847, 2297110000000, 
4.986702554686363, 3.3952616681882275, 0.26123712035752045, 2297115000000, 
0.11825473108617458, 2.1355721008190423, 0.26116588298998317, 2297120000000, 
-9.865006812298788, -3.9283731539296154, 0.2558445380482678, 2297125000000, 
0.7681767399077534, -1.2618874770194786, 0.25526116867258053, 2297130000000, 
-9.320088582294641, -5.6521826085636455, 0.24994068378562637, 2297135000000, 
-4.286355760176774, 10.710487668299164, 0.25342516516991176, 2297140000000, 
-32.513503810504815, -17.313676106793363, 0.2567519862491534, 2297145000000, 
14.07098112470356, 11.301204372335333, 0.24820490203562132, 2297150000000, 
-3.50989765468097, 0.5946499135478363, 0.24828813334452945, 2297155000000, 
-5.929845953165648, -1.5547379674742683, 0.248482336548714, 2297160000000, 
0.6147459038224468, 1.5582907262034988, 0.24699041648757183, 2297165000000, 
-1.9742735267376947, 0.2978141750059498, 0.2462587571613122, 2297170000000, 
-2.550512759616919, -0.07485693269325165, 0.24591810727984095, 2297175000000, 
-2.1693686274169237, 0.1054088565037238, 0.24483323013854846, 2297180000000, 
-7.637356665573057, -2.254006842557393, 0.2454095412653975, 2297185000000, 
1.7606660891577093, 1.4802168429121896, 0.2443800136292487, 2297190000000, 
-3.016253219552944, -0.31958959967674655, 0.24407077593122944, 2297195000000, 
-8.049094518195172, -3.101046491249569, 0.24437985979468899, 2297200000000, 
3.792142926172387, 2.9692305840955586, 0.24247926235932826, 2297205000000, 
-12.898619246808616, -5.70501734268366, 0.24596766811559595, 2297210000000, 
12.16549780909642, 7.656788673522008, 0.24190050392281168, 2297215000000, 
-2.0098084163397876, -0.588219384607955, 0.24244862097991943, 2297220000000, 
-2.250142250859949, -0.5644208562866586, 0.24338073246856948, 2297225000000, 
-2.830645343215914, -0.37536546991069075, 0.2414067077247106, 2297230000000, 
-2.2892361636689125, -0.7325832094097288, 0.24172392227409722, 2297235000000, 
-2.3241200866460563, -0.5770020149743182, 0.24233244249712785, 2297240000000, 
-19.08604497949334, -9.727657603528208, 0.24597583540541523, 2297245000000, 
13.335023319422346, 8.341110254175351, 0.24105122023494227, 2297250000000, 
-1.8932924436224805, -0.7189327356777341, 0.24123423940310795, 2297255000000, 
-2.058261967829475, -0.6955785609912658, 0.2419082797880835, 2297260000000, 
-2.03875312760513, -0.6458722083702988, 0.2431012175806391, 2297265000000, 
-11.01254756002438, -5.692928569134564, 0.24329608283504062, 2297271000000, 
8.45588007098216, 5.594340989317544, 0.2405199412349423, 2297276000000, 
-1.8325014723038136, -0.8182595574645174, 0.24098424156754114, 2297281000000, 
-2.082072857828463, -0.8106192419057188, 0.24203007044407832, 2297286000000, 
-2.157898091822436, -0.8184196256916413, 0.24257505912840133, 2297291000000, 
-2.0775174416033657, -0.8941605268730405, 0.2434103268897236, 2297296000000, 
-2.2001729809041857, -0.9951565439943413, 0.24402441573496658, 2297301000000, 
-2.2858756465498744, -1.1069017526621332, 0.245160170163995, 2297306000000, 
-11.304079108636296, -6.450860124198689, 0.24506093252034497, 2297311000000, 
7.569575008119874, 4.4295813600429215, 0.24232508368194222, 2297316000000, 
-1.6773309693957024, -0.849363913479987, 0.2435275400344204, 2297323000000, 
-1.793707380720258, -0.9705188027167702, 0.24386406195657717, 2297328000000, 
-2.300855922380528, -1.1817361776132473, 0.24466403400853573, 2297333000000, 
-2.1577862234168053, -1.2199179221728387, 0.24552465948013674, 2297338000000, 
-2.1869423476619945, -1.2920590401678826, 0.24654621323699838, 2297343000000, 
-2.2435268089604046, -1.4009463026820654, 0.24723486511423537, 2297348000000, 
-2.2860919208828308, -1.4680071907770047, 0.24773940147130905, 2297353000000, 
-2.363628553152346, -1.6335283202950497, 0.24873488586706521, 2297358000000, 
-2.1252247072001498, -1.6580058483879871, 0.24938534011621669, 2297363000000, 
-2.4348980347064315, -1.7000567530499515, 0.25044957930122436, 2297368000000, 
-2.397598249101349, -1.7135375140624611, 0.2509859753409572, 2297373000000, 
-2.4465651166279363, -1.7961579636236589, 0.2519816244982458, 2297378000000, 
-2.4100333276787436, -1.8477249719756204, 0.252797132445814, 2297383000000, 
-2.422823763753372, -1.9059788884945639, 0.253803207693162, 2297388000000, 
-2.4467364835539023, -1.9077462035785777, 0.2544313300741753, 2297393000000, 
-2.3164675427082937, -1.9138524810068687, 0.25545700299639423, 2297398000000, 
-1.9672119679638673, -1.792952726757816, 0.25576876702704027, 2297403000000, 
-2.2464492161526457, -1.945916512492115, 0.25646744256343446, 2297408000000, 
-2.321654478210673, -2.010640970821474, 0.25731632894236023, 2297413000000, 
-2.4178482538635704, -2.051838027323732, 0.2581880619155938, 2297418000000, 
-2.38090865861986, -2.120044680773278, 0.25925746289302176, 2297423000000, 
-2.4034590992614437, -2.1661463797621523, 0.2598842117059306, 2297428000000, 
-2.363067783166062, -2.199676820045481, 0.2606903686955203, 2297434000000, 
-2.362450970515986, -2.2487293878016676, 0.2614975278524636, 2297439000000, 
-2.409925400211466, -2.243741799858185, 0.2621976481076401, 2297444000000, 
-2.3847597982497817, -2.33762801631279, 0.2626073821256347, 2297449000000, 
-2.3651205708424134, -2.375912784793474, 0.26377268761367023, 2297455000000, 
-2.362455925496437, -2.4122448668853087, 0.2642905302431117, 2297460000000, 
-2.1117199421193504, -2.4192612431517, 0.2648695401252609, 2297465000000, 
-2.4102693400308968, -2.4651533079609176, 0.26504116194017024, 2297470000000, 
-2.387900571091318, -2.4977601405066956, 0.2666032027797665, 2297475000000, 
-2.367119120552594, -2.555105434984753, 0.2669789388383152, 2297480000000, 
-2.3756701393042166, -2.6019342086261523, 0.2672984215347911, 2297485000000, 
-2.3853711897759133, -2.615030166899975, 0.26804713695912064, 2297490000000, 
-2.3582452635917908, -2.622351633530257, 0.26904763545981975, 2297495000000, 
-2.3766164593290453, -2.6797387023479025, 0.26903701554073994, 2297500000000, 
-1.1139493521363988, -1.7429501242769914, 0.26947180111093744, 2297505000000, 
-1.4414411177617992, -1.577886063045963, 0.2702949274092327, 2297510000000, 
-3.98861410578794, -3.896697857325244, 0.2720226673340795, 2297515000000, 
-2.390521506375274, -3.1050592515485764, 0.273446861210575, 2297526000000, 
-0.6625654410690363, -1.3466320568699905, 0.27370883961118464, 2297531000000, 
-2.622206779010868, -2.6290116594417148, 0.27467609718847213, 2297536000000, 
-3.5692234745559577, -4.016410609958545, 0.2754600264350093, 2297541000000, 
-2.361215872775781, -3.3622368135959637, 0.27663603230984746, 2297546000000, 
-2.4015747059625863, -3.350363173753395, 0.27636721333407815, 2297551000000, 
-0.9805611315122411, -1.6298760094109543, 0.2772967788674881, 2297556000000, 
-3.2711068501093727, -3.4003129735770266, 0.2786367033489546, 2297561000000, 
-2.8196916079514813, -3.9372306976039937, 0.27956838774152504, 2297566000000, 
-2.3185817719829043, -3.634755933381797, 0.28020193482023625, 2297571000000, 
-1.1127032932485807, -1.8621761012023215, 0.28060229743456333, 2297577000000, 
-3.305992039535962, -3.642423080060544, 0.2817918323621409, 2297582000000, 
-3.1899929395137216, -4.372971155281231, 0.28288211556153986, 2297587000000, 
-1.6461325466902936, -3.192141364763498, 0.2834137160610997, 2297592000000, 
-1.5514416635614519, -2.2690032285260955, 0.2845658321067336, 2297602000000, 
-4.193035388355192, -5.199327881879887, 0.2859851709797718, 2297607000000, 
-1.4885632541717468, -3.066541681628824, 0.28623731902506544, 2297612000000, 
-1.484614496424975, -2.3001876669016523, 0.28755331502844184, 2297617000000, 
-1.9704459004180448, -2.6598064809476054, 0.28769458750839705, 2297622000000, 
-3.769419879978819, -4.695287003541375, 0.2890368574895643, 2297627000000, 
-2.8407465661980873, -4.659244061608472, 0.2899095665500989, 2297632000000, 
-0.7462867798365495, -2.016284430509605, 0.2902017601584624, 2297637000000, 
-1.9217872449688396, -2.7174339398278016, 0.2911921113826997, 2297642000000, 
-1.9628483100992589, -2.864508326102079, 0.29209498387285787, 2297647000000, 
-4.29464776603674, -5.484751276203392, 0.2929773453074357, 2297652000000, 
-1.9652604446439779, -3.961902064982709, 0.2931144895228277, 2297657000000, 
-1.405456895841359, -2.5481860557077214, 0.29387517141495173, 2297662000000, 
-1.8367732344284993, -2.9331914675710333, 0.29489232428424456, 2297667000000, 
-1.927558840060807, -3.0923424085408775, 0.2956770626259944, 2297672000000, 
-3.5080364939667783, -4.6677773282763155, 0.29692851758908506, 2297677000000, 
-3.2698276390235685, -5.46384415043981, 0.29751555853785244, 2297682000000, 
-0.3410895734858667, -2.164281101962784, 0.2972630389836655, 2297687000000, 
-1.8927556264328553, -3.0310883268710653, 0.29837477234365184, 2297693000000, 
-2.021829282847181, -3.2076403547283325, 0.29933355738845574, 2297698000000, 
-2.002412879097101, -3.29340330542589, 0.3001212518521634, 2297703000000, 
-2.9597273949939824, -4.316349295648323, 0.30087531043842064, 2297708000000, 
-3.7556873528620334, -6.249257271930376, 0.30180274017365993, 2297713000000, 
-1.0208619964375811, -2.7099447355280977, 0.3021438310281481, 2297718000000, 
-2.058397508320765, -3.317961055461169, 0.30281775017602736, 2297723000000, 
-2.0722735454324006, -3.4063831798197066, 0.3037887744637095, 2297728000000, 
-2.057148861137573, -3.5352909130551593, 0.30423885313539234, 2297733000000, 
-2.0517875602810336, -3.586129982561144, 0.30538101622023966, 2297738000000, 
-2.9934152564207843, -4.647781623219281, 0.3061833441832248, 2297743000000, 
-3.209166548463852, -5.967382482721106, 0.30741022468393775, 2297748000000, 
-1.296191597562039, -3.088943349923275, 0.30731054238185623, 2297753000000, 
-2.1086126586969027, -3.5904158773520836, 0.3081852952317527, 2297758000000, 
-2.1459397908784625, -3.6797021423241336, 0.3089545573752904, 2297763000000, 
-2.0437020158442496, -3.7750718352132377, 0.30994351523577707, 2297768000000, 
-1.9887177095646937, -3.8487760780713804, 0.3105500554582262, 2297773000000, 
-2.132865952148721, -3.925186492725451, 0.31148024778587063, 2297778000000, 
-2.2091606644946173, -3.972724532848167, 0.31211861898512133, 2297783000000, 
-3.9181577646793304, -6.8269322466620075, 0.3131451905242675, 2297788000000, 
-1.406183928573143, -3.3895208289740557, 0.31378468240197127, 2297793000000, 
-2.1637166115781294, -3.8721699091919892, 0.3151183565496249, 2297798000000, 
-2.1715991119761853, -3.9665834070805808, 0.31528799218582965, 2297803000000, 
-2.1500553972807044, -3.994154387678135, 0.3161033899881166, 2297808000000, 
-2.176865837049673, -4.102397963439302, 0.31714899107817807, 2297813000000, 
-2.182480024099033, -4.121148541075274, 0.31747009621322214, 2297818000000, 
-2.190894732671749, -4.171301966420695, 0.31918625671070366, 2297823000000, 
-2.2262944877901103, -4.255967955328117, 0.3196956671693898, 2297828000000, 
-2.245513762541316, -4.321984890322238, 0.32048138328766007, 2297833000000, 
-2.095181077001194, -4.360681358621183, 0.3210101068521266, 2297838000000, 
-2.2549416234945716, -4.392464848705203, 0.32155775908735806, 2297843000000, 
-3.8301881640438036, -6.874479315603917, 0.3228891546272358, 2297848000000, 
-1.4957055096067018, -3.8509946424258388, 0.3230709882198239, 2297853000000, 
-2.230221312580369, -4.2348146990911495, 0.3240956064886254, 2297858000000, 
-2.2624374233392914, -4.33938700067594, 0.3244749314825842, 2297863000000, 
-2.2044084459420583, -4.336773368241908, 0.3255853442104564, 2297868000000, 
-2.2489826255484546, -4.396456059676709, 0.32591219019981366, 2297873000000, 
-2.2661398877269265, -4.469386458820426, 0.3267960332313121, 2297878000000, 
-2.2789462907404796, -4.497639376748772, 0.3278490796086917, 2297883000000, 
-2.2780849086890655, -4.556412289928066, 0.32845659110726805, 2297888000000, 
-2.2784569010522353, -4.571921082619698, 0.32934950293434434, 2297893000000, 
-2.3113010538999705, -4.633080841639762, 0.32963163974812826, 2297898000000, 
-2.331525301465569, -4.6564601799907885, 0.3302817419662143, 2297903000000, 
-2.3420519360569694, -4.67559854789971, 0.3315266789183056, 2297908000000, 
-2.3543498614227287, -4.722312030113534, 0.33187924711707734, 2297913000000, 
-2.356396411542946, -4.752745842269217, 0.33278516139493636, 2297918000000, 
-2.349772502034792, -4.775056203595742, 0.33339715531548686, 2297923000000, 
-2.350808850070561, -4.7994630544006815, 0.33453260615953795, 2297928000000, 
-2.3765205727828884, -4.824129507970463, 0.33518467019881454, 2297933000000, 
-2.2797557338506516, -4.866924111992942, 0.3358400266483316, 2297938000000, 
-2.22050252319602, -4.862532056649483, 0.33667866179454903, 2297943000000, 
-2.362675743330331, -4.903247749071159, 0.3377333304790961, 2297948000000, 
-2.375096497730629, -4.89223722931222, 0.3379633346910324, 2297953000000, 
-2.3843555121062407, -4.927539931159846, 0.3388490877002468, 2297958000000, 
-2.36668758051255, -4.953864390879785, 0.3393137749331224, 2297963000000, 
-2.3464049355332666, -4.935922261963645, 0.34055762752906305, 2297968000000, 
-2.3567321238171277, -4.947664279635606, 0.34116914773227297, 2297973000000, 
-2.3691419712484043, -4.992748072103545, 0.3424740226588404, 2297979000000, 
-2.4050794064555143, -5.007757725723846, 0.34258163969569255, 2297984000000, 
-2.4169964649256794, -5.018522580059781, 0.3437030876034436, 2297989000000, 
-2.410003720012252, -5.0461471630221135, 0.3440070063767273, 2297994000000, 
-2.38747652995032, -5.038564054005711, 0.3455466082851779, 2297999000000, 
-2.402789150422696, -5.069388692330904, 0.34578481038743514, 2298004000000, 
-2.4018565484279484, -5.0974524808437796, 0.3465869607563654, 2298009000000, 
-2.3716064611329517, -5.059587212364771, 0.34722867345169206, 2298014000000, 
-2.409205367163676, -5.092502648540534, 0.3484228541926574, 2298019000000, 
-2.3882381334998084, -5.070951656028279, 0.348973407272334, 2298024000000, 
-2.3972140168469402, -5.138066956908168, 0.3497652746706364, 2298029000000, 
-2.407692242412034, -5.167550054356172, 0.35029830922312843, 2298034000000, 
-2.3340628676500823, -5.162449355505577, 0.3515091672931108, 2298039000000, 
-2.273991480913151, -5.193399201127916, 0.3517022202463825, 2298044000000, 
-2.4032909288238185, -5.184606583018418, 0.3524665690234674, 2298049000000, 
-2.41571849802209, -5.1997618196570015, 0.352766711202314, 2298054000000, 
-2.3887133942597747, -5.233000410916231, 0.35379660115717376, 2298060000000, 
-2.4133233814817965, -5.261712561455696, 0.3550487366088555, 2298066000000, 
-2.443920597370428, -5.249822568847768, 0.3552785557934256, 2298071000000, 
-2.45395543168375, -5.2502501689319345, 0.35620836246652987, 2298076000000, 
-2.451317785112729, -5.294694239313712, 0.3568915456554606, 2298081000000, 
-2.450699542680012, -5.290276371681808, 0.35793989679206023, 2298086000000, 
-2.476913491870701, -5.2859871037806725, 0.35852360056181753, 2298091000000, 
-2.458282210942775, -5.314925032082876, 0.35884853733949323, 2298096000000, 
-2.4731390608726467, -5.34758740066535, 0.3599520157653114, 2298101000000, 
-2.470827595750437, -5.33772058741336, 0.36016032632403633, 2298106000000, 
-2.4544522694859223, -5.34924558762787, 0.3615894558910913, 2298111000000, 
-2.4459481413339077, -5.330535456111857, 0.36185717424506025, 2298116000000, 
-2.4788390238944524, -5.3957602153430075, 0.36299273172315105, 2298121000000, 
-2.4869744658747965, -5.3866914091321565, 0.36382271931182963, 2298126000000, 
-2.462830859269927, -5.398518376448398, 0.36530913978736673, 2298134000000, 
-2.4776748141436524, -5.427706529832019, 0.3655817751968545, 2298139000000, 
-2.330496303574626, -5.424425137110407, 0.366530456582113, 2298144000000, 
-2.4618316130860936, -5.426644202280769, 0.3666472404647447, 2298149000000, 
-2.4991205570691584, -5.409287656454715, 0.36743934448655163, 2298154000000, 
-2.4966945950334374, -5.46434989479274, 0.3681657941029567, 2298159000000, 
-2.485907828378272, -5.449717401692426, 0.36899737760934576, 2298164000000, 
-2.485202619648488, -5.479699387748872, 0.36993488319637485, 2298169000000, 
-2.500882955645904, -5.513903548161424, 0.3703967187602301, 2298174000000, 
-2.5161612431543006, -5.47052093926535, 0.3709355372791559, 2298179000000, 
-2.503056674620274, -5.464197022215168, 0.3718193816893606, 2298184000000, 
-2.5424337666432058, -5.4926311763624955, 0.3727169467641983, 2298189000000, 
-2.5249588513076375, -5.54229112078917, 0.37329062529123125, 2298194000000, 
-2.548177316802827, -5.52407645181247, 0.37421996001566493, 2298199000000, 
-2.5346668621608046, -5.53006333393502, 0.37446505142453895, 2298204000000, 
-2.5187835689753624, -5.536734580027565, 0.37512488413818723, 2298209000000, 
-2.5269729784115476, -5.555802856775521, 0.3760496853526628, 2298214000000, 
-2.5474795097152545, -5.567654687021133, 0.37639193951772104, 2298219000000, 
-2.5567223549857676, -5.550683574084249, 0.377443710380206, 2298224000000, 
-2.562949907197755, -5.559026274566781, 0.378344212742304, 2298229000000, 
-2.5771008613991815, -5.562453854491684, 0.3783546610995048, 2298234000000, 
-2.560857845955466, -5.59315138698655, 0.37946601294609916, 2298239000000, 
-2.480174922591691, -5.638622822531645, 0.38026243968291357, 2298244000000, 
-2.4725360755850834, -5.627001509396425, 0.38092705106010194, 2298249000000, 
-2.5689862531938994, -5.626358936227224, 0.3811534083203387, 2298254000000, 
-2.6045644522524545, -5.635958055367068, 0.3820615350585125, 2298259000000, 
-2.5650268963650262, -5.64491735571576, 0.3831034600500832, 2298264000000, 
-2.585614414652872, -5.6444331029846095, 0.38358096594633256, 2298269000000, 
-2.587649021697202, -5.643987326711069, 0.3838954351276767, 2298274000000, 
-2.582624804939755, -5.6348445201507875, 0.38501731297293185, 2298279000000, 
-2.6100345075473435, -5.667646421202308, 0.3855383218947727, 2298284000000, 
-2.6181276125501203, -5.687119556605057, 0.38612612955766307, 2298289000000, 
-2.607746387315325, -5.682202035118546, 0.38705876438993864, 2298294000000, 
-2.6288598252963844, -5.735249308786097, 0.38781291725572603, 2298299000000, 
-2.590980066689191, -5.648029071160869, 0.38836559376367247, 2298304000000, 
-2.615357426208038, -5.6748904730617165, 0.3894438347372377, 2298309000000, 
-2.6181017932382176, -5.689146853235138, 0.39000786922755215, 2298314000000, 
-2.6466802026902494, -5.717409128024216, 0.39072408882297555, 2298319000000, 
-2.656978302152553, -5.711822888581558, 0.39142117885500544, 2298324000000, 
-2.643361698841042, -5.692547151577654, 0.3928353302850233, 2298329000000, 
-2.6711436516378027, -5.69273226020835, 0.39340060977499286, 2298334000000, 
-2.637528513470218, -5.701540659037898, 0.39402751856482954, 2298339000000, 
-2.661402460599212, -5.733401868822051, 0.3946275634904897, 2298344000000, 
-2.4925743186700493, -5.728035832445673, 0.39508712703578347, 2298349000000, 
-2.66036173169234, -5.737867339453173, 0.39606684891301464, 2298354000000, 
-2.6680555245824986, -5.740112811090268, 0.3971414195116881, 2298359000000, 
-2.673512225073851, -5.761273982156814, 0.3977695632857974, 2298364000000, 
-2.6900709487619214, -5.784644169552424, 0.39840752064273605, 2298369000000, 
-2.66298149856835, -5.7563106860235305, 0.3990044233264783, 2298374000000, 
-2.6853650668194895, -5.781183338056594, 0.39972274335374675, 2298379000000, 
-2.698173990236662, -5.775280654007197, 0.4007833576084496, 2298384000000, 
-2.7158545958794633, -5.7792692871985265, 0.40135668524386015, 2298389000000, 
-2.6781372447159324, -5.777229704475278, 0.40193878600108407, 2298394000000, 
-2.7306610362841974, -5.803496908327564, 0.4027111663353455, 2298399000000, 
-2.7208032424330284, -5.789239208295761, 0.40296508020274885, 2298404000000, 
-2.736927714144125, -5.776978638361539, 0.40367109818023106, 2298410000000, 
-2.7168368955966526, -5.792556412098172, 0.405076387060999, 2298415000000, 
-2.74776987607884, -5.794164894912988, 0.4052735158093924, 2298420000000, 
-2.725913645145929, -5.823823387580099, 0.40593842398385177, 2298425000000, 
-2.729531623601007, -5.853632944272079, 0.4070359459345795, 2298430000000, 
-2.7491692594876356, -5.813434686187483, 0.4073372804506887, 2298436000000, 
-2.7833595311957477, -5.814135713863646, 0.4084135536713034, 2298441000000, 
-2.7602618852004874, -5.85112069074049, 0.4091876255635053, 2298446000000, 
-2.583592288407733, -5.827951388302992, 0.4097533282616162, 2298451000000, 
-2.758915776068474, -5.823923375968637, 0.4106117985163655, 2298456000000, 
-2.8080540840782082, -5.826348767083702, 0.41088279355511625, 2298461000000, 
-2.784356928852785, -5.844799339588492, 0.41179781766733153, 2298466000000, 
-2.8074441179279455, -5.828902032575088, 0.4127401939073611, 2298471000000, 
-2.8067699577855465, -5.862859086116468, 0.4136443407011725, 2298476000000, 
-2.789209465873782, -5.861997025954381, 0.41355042584146146, 2298481000000, 
-2.805429419548082, -5.837432744765142, 0.4150227422664725, 2298486000000, 
-2.828782139018879, -5.821189251176164, 0.4155548058857533, 2298491000000, 
-2.790032923369248, -5.831317433088051, 0.41681047742235205, 2298496000000, 
-2.8621406361286317, -5.8138853470637875, 0.41688181678709463, 2298501000000, 
-2.831495758643448, -5.826647963103327, 0.41843047027236424, 2298506000000, 
-2.804370673795689, -5.851543695993289, 0.41873113442743654, 2298511000000, 
-2.8296578209228813, -5.8595033007289805, 0.4195207612090927, 2298516000000, 
-2.8498225393462846, -5.8666968442435135, 0.42032324182719627, 2298521000000, 
-2.8201785667835857, -5.877800247603078, 0.4210397299007024, 2298526000000, 
-2.8601462594617235, -5.838175589303169, 0.42195615936055, 2298531000000, 
-2.8641477199947105, -5.851149218513104, 0.42223107505373636, 2298536000000, 
-2.825047951040899, -5.841203675871697, 0.423992464012437, 2298541000000, 
-2.89239426900114, -5.857627993861545, 0.4247231486799241, 2298546000000, 
-2.776930988465162, -5.861793822268589, 0.4251641836429094, 2298551000000, 
-2.8390269043345957, -5.8379700741325316, 0.42576828960342883, 2298556000000, 
-2.8913793351788812, -5.85161868191843, 0.42673887426274193, 2298561000000, 
-2.8889285281916726, -5.84321366965752, 0.42733084481410405, 2298567000000, 
-2.8841056435220938, -5.8861270682080535, 0.42848301011015527, 2298572000000, 
-2.9207798234580826, -5.834700018168652, 0.42905152673683766, 2298578000000, 
-2.91680722510926, -5.863456213198925, 0.4297085079176296, 2298583000000, 
-2.934266461371721, -5.876346083379126, 0.4305333997064913, 2298588000000, 
-2.932985723161223, -5.852583156369382, 0.43137523518937687, 2298593000000, 
-2.9414934320148114, -5.873124107649783, 0.43189357343336326, 2298598000000, 
-2.94197202575377, -5.8495034688517356, 0.43296282927925334, 2298603000000, 
-2.9549848012008617, -5.835880906659717, 0.4337863298784592, 2298608000000, 
-2.976454069953365, -5.873480339707372, 0.4346486471587621, 2298613000000, 
-2.987797808895737, -5.863976318175113, 0.4353597642443222, 2298618000000, 
-2.9319574276504436, -5.880835511528423, 0.4362906785291197, 2298623000000, 
-2.9419283227503743, -5.851136678147906, 0.43669186318691083, 2298628000000, 
-2.9688912150048705, -5.857104219836157, 0.43763034288603636, 2298633000000, 
-2.989447113316571, -5.834765314336909, 0.4383673305396653, 2298638000000, 
-2.994961159787102, -5.82798209624782, 0.43951324638224765, 2298644000000, 
-2.998674126752982, -5.827655942573134, 0.43990775829865497, 2298649000000, 
-2.8864840342685723, -5.868456010601991, 0.44032793287695754, 2298654000000, 
-3.0067636412384364, -5.860750011605904, 0.44144331594294456, 2298659000000, 
-3.038444800970555, -5.829104976015658, 0.4424640331719907, 2298664000000, 
-3.0099893315412047, -5.86313501196287, 0.4428472167844577, 2298669000000, 
-3.0345717207529312, -5.83321621939836, 0.4438830712091556, 2298674000000, 
-2.9860739360802495, -5.859776536610908, 0.44452702831965557, 2298679000000, 
-3.0236106240757175, -5.847911370924034, 0.4454330838334098, 2298684000000, 
-3.045149244675851, -5.831356603809161, 0.4464927307539316, 2298689000000, 
-2.996150629079234, -5.816228825415879, 0.447321360096096, 2298694000000, 
-3.0614842626498815, -5.822641414908827, 0.4478168432250064, 2298699000000, 
-3.0693053680960696, -5.796087701909326, 0.44884338425241704, 2298704000000, 
-3.0458152639943927, -5.844996679094594, 0.44976437730803936, 2298709000000, 
-3.0533703737497477, -5.809172678998666, 0.4503846451006962, 2298714000000, 
-3.0680881042804673, -5.813500684391934, 0.45109925439381743, 2298719000000, 
-63.296805634375595, -37.17914405350985, 0.4664580020803633, 2298724000000, 
50.86854054720554, -2.423124203042294, 0.44102416344624673, 2298729000000, 
-2.7598626330772893, -0.7886828217677573, 0.4421416943686332, 2298734000000, 
-6.12205171723234, -2.3535743056501635, 0.4444596925822799, 2298739000000, 
-3.112644825573039, -2.8156912491371657, 0.44556439061926717, 2298744000000, 
-1.9263021841528607, -3.2434363730648808, 0.44655610030250337, 2298749000000, 
-1.8914872216494103, -3.643134659701529, 0.4465577491852776, 2298754000000, 
-2.0425407517345104, -3.9297954825076675, 0.44771533383892886, 2298759000000, 
-2.3105135280138835, -4.210898502584262, 0.44786776987365284, 2298764000000, 
-2.449789815106068, -4.4546437057486665, 0.44847441445460057, 2298769000000, 
-2.567858158550049, -4.686071322888707, 0.4493019854698855, 2298774000000, 
-2.6621346246685276, -4.830899320927052, 0.4501381555566624, 2298779000000, 
-2.756605235009618, -4.977720647720562, 0.4510968969657963, 2298784000000, 
-2.7810756700433314, -5.106890001486316, 0.4516015786013927, 2298789000000, 
-2.8692255666762128, -5.217803320243398, 0.45256686831680554, 2298794000000, 
-2.8899454515100245, -5.290355674456744, 0.45308831204547223, 2298799000000, 
-2.9551132094525037, -5.353947439759346, 0.4537842069769341, 2298804000000, 
-2.972252650619314, -5.442643334963471, 0.4550818483458354, 2298809000000, 
-3.050828242413846, -5.482153715425958, 0.4557519302222186, 2298814000000, 
-3.083910109579593, -5.496601767433052, 0.45664156952496676, 2298819000000, 
-3.0011126128934364, -5.513425664468058, 0.4573427795981127, 2298824000000, 
-3.0962769375133474, -5.549689932954699, 0.45795188273835824, 2298829000000, 
-3.1331824043768632, -5.627800270895057, 0.45908865670649596, 2298834000000, 
-3.1927309980445613, -5.600813826742833, 0.4602287247705145, 2298840000000, 
-53.965043314318905, -31.65406440344152, 0.47585283789452776, 2298845000000, 
57.991054949495954, -2.9064049406018717, 0.452613461030345, 2298850000000, 
4.929768136175812, 0.4220890492864708, 0.44966130089632617, 2298855000000, 
-7.344488093332051, -2.0598092403925303, 0.4536566448408454, 2298860000000, 
-3.8991714904444827, -2.6561571294442814, 0.4547835496349984, 2298865000000, 
-2.1107507337324005, -3.0216553076184836, 0.45524256624479226, 2298870000000, 
-1.9181676496359379, -3.432290667775544, 0.4565008364195464, 2298875000000, 
-2.16975215207429, -3.7629911923569153, 0.45680040470840466, 2298880000000, 
-2.3532571415422248, -4.0603663896550835, 0.45761262560128113, 2298885000000, 
-2.500943773275624, -4.3100626496203285, 0.45850416400220206, 2298890000000, 
-2.6336623035515796, -4.513075769952687, 0.45907689458823353, 2298895000000, 
-2.7253878879537914, -4.665907813298023, 0.459685130570543, 2298900000000, 
-2.8428137966790645, -4.854410265525893, 0.460498227983306, 2298905000000, 
-2.884415348249486, -4.984902969594667, 0.46106141419331986, 2298910000000, 
-2.9374663372558665, -5.056370680085467, 0.4619524513672725, 2298915000000, 
-3.0193607958990487, -5.154403333881351, 0.4629286970586651, 2298920000000, 
-2.9475777750987238, -5.1643619108599665, 0.46395827412363017, 2298925000000, 
-3.03761237427245, -5.260894269821036, 0.4646810807976985, 2298930000000, 
-3.163853030997953, -5.327456511315011, 0.4658590932042792, 2298935000000, 
-3.183764065427549, -5.364025235631724, 0.466231772322926, 2298940000000, 
-49.419733776629656, -33.918183320392764, 0.47896479051603547, 2298945000000, 
48.178005121286894, 3.1674028688475695, 0.4555002037713841, 2298950000000, 
-1.8092921235515558, 0.023109701001257615, 0.4562566409390709, 2298955000000, 
-8.33248083610525, -2.3864200091992434, 0.46008675814571026, 2298960000000, 
-4.089587890308912, -2.7951081824136472, 0.46144738380630046, 2298965000000, 
-2.1420516460118435, -3.052032448514739, 0.4622279087327618, 2298970000000, 
-2.0029987475408007, -3.3183772770497786, 0.4626540647305007, 2298975000000, 
-2.2611898013678093, -3.7043974609126478, 0.46345147670163855, 2298980000000, 
-2.4455651450087807, -3.9608848062737283, 0.4640548089488691, 2298985000000, 
-2.5721050333394984, -4.220972324667568, 0.4649389605339554, 2298990000000, 
-2.7495238625014875, -4.420868570037262, 0.4655751145977687, 2298995000000, 
-2.8175582011773193, -4.612594698581041, 0.46626840151540594, 2299000000000, 
-2.9215079660985133, -4.701845036526265, 0.46736310366671646, 2299005000000, 
-3.0123965303799283, -4.833036545109298, 0.4687772444971639, 2299011000000, 
-3.0445351381402244, -4.925893143245656, 0.4694453945469653, 2299017000000, 
-3.111486565916114, -4.994901612706015, 0.4699572025966264, 2299022000000, 
-3.093419085524071, -5.040710068199586, 0.4712631463173014, 2299027000000, 
-58.07315223171998, -37.73088090348642, 0.4840029334384072, 2299032000000, 
47.46543880893344, 2.940141400342901, 0.4605672020081271, 2299037000000, 
-3.233829361558909, -0.37517032548399243, 0.46241906005713007, 2299042000000, 
-7.564448005931863, -2.38730045798635, 0.46562026942479795, 2299047000000, 
-3.4665138704821765, -2.715221276114422, 0.4670653855254957, 2299052000000, 
-2.0546052377491923, -3.015320499240592, 0.46740587946914786, 2299057000000, 
-2.1090020961970626, -3.344062686412307, 0.468586432573845, 2299062000000, 
-2.364513374055492, -3.6565588740055475, 0.4682793320138283, 2299067000000, 
-2.490004871447776, -3.929321796124145, 0.4698245101202105, 2299072000000, 
-2.681942956669744, -4.118069985399962, 0.47084675845602875, 2299077000000, 
-2.804755659742666, -4.3144425565311915, 0.47140915872536987, 2299082000000, 
-2.909603149580101, -4.4891486473333675, 0.4728664049242157, 2299088000000, 
-2.993459055578404, -4.619739904072724, 0.4732633523451773, 2299093000000, 
-3.054165564901636, -4.718462522643947, 0.4744580280072384, 2299098000000, 
-3.1091638686662746, -4.79302491092111, 0.4751796153880118, 2299103000000, 
-51.529541312197395, -33.7607503630339, 0.4860219102705035, 2299108000000, 
40.58885909806139, 1.0284221025396387, 0.4657551549854022, 2299113000000, 
-4.444487606731022, -0.7770797035489689, 0.4682793410591687, 2299118000000, 
-6.242926979125787, -2.076024877218625, 0.4708873232882519, 2299123000000, 
-2.9773155953000487, -2.545735761493947, 0.4715776968041112, 2299128000000, 
-1.9345241985562471, -2.8936605676028337, 0.47227894628614614, 2299133000000, 
-2.1861847261594947, -3.300154126421073, 0.4732492163870403, 2299138000000, 
-2.39847470249677, -3.612460392761571, 0.47385458685418447, 2299143000000, 
-2.5470887271839344, -3.7738487587949634, 0.4745396305580185, 2299148000000, 
-2.7344711284223613, -4.021637408300044, 0.4756803446953383, 2299153000000, 
-2.843686595789623, -4.1997059853367595, 0.4760989621334864, 2299158000000, 
-2.9270751770913828, -4.304927740572704, 0.477538382824977, 2299163000000, 
-3.0391725772297575, -4.429866805452845, 0.47804960387939044, 2299168000000, 
-3.0787810456465388, -4.515424265621156, 0.47860759059522356, 2299173000000, 
-33.99989150394153, -32.02710871683451, 0.4807868897309224, 2299178000000, 
26.178685909965385, 2.670582573132854, 0.46815597291577415, 2299183000000, 
-8.111965033310765, -1.4215664599623894, 0.4721877640630371, 2299188000000, 
-5.642749967471834, -2.2669857688986594, 0.47423029864337146, 2299193000000, 
-2.649823449938016, -2.6183297017567635, 0.4752673634066548, 2299198000000, 
-2.057495992462064, -2.9453918196650637, 0.4758792385599592, 2299203000000, 
-2.244914430649721, -3.247772613727076, 0.47672507697168287, 2299208000000, 
-2.527765208122784, -3.5370654876661676, 0.47791571516494297, 2299214000000, 
-2.6685423106894133, -3.8048265469135805, 0.4782022888791916, 2299219000000, 
-2.7685475711312977, -3.9176100949961703, 0.479233921561829, 2299224000000, 
-2.904061819815096, -4.0746443867381315, 0.4801222310624643, 2299229000000, 
-2.8407216274528806, -4.227200546173663, 0.4814490756095623, 2299234000000, 
-68.76310562304208, -38.33509034193253, 0.49447555941158805, 2299239000000, 
39.093197239444585, 1.4988114424107164, 0.471259222633958, 2299244000000, 
-5.889826145204525, -0.6651772669856982, 0.4735374632489642, 2299249000000, 
-7.412397668101545, -1.916925597213723, 0.47674121056764235, 2299254000000, 
-3.4484119687875774, -2.361358481189065, 0.47803748517595823, 2299259000000, 
-2.0869049053943307, -2.675884914487269, 0.47893259148833334, 2299264000000, 
-2.115273549794096, -2.9609057269185173, 0.47927229314023356, 2299269000000, 
-2.355628246057621, -3.2740924019597584, 0.4801144436113411, 2299274000000, 
-2.614789005176834, -3.5116636884000116, 0.4809988908664781, 2299279000000, 
-2.728082262865245, -3.6932896914180686, 0.48229669391978874, 2299284000000, 
-2.878762933465652, -3.856935339819129, 0.4832591209329965, 2299289000000, 
-2.9480385690638515, -3.9877963760485824, 0.48380704510517814, 2299294000000, 
-32.550946136337686, -27.891940044605306, 0.4864620634146652, 2299299000000, 
12.889747311102166, 0.6367756288345371, 0.47606953499706683, 2299306000000, 
-7.757910243951629, -1.775518274777948, 0.4790061192539885, 2299311000000, 
-4.2666705791686015, -2.1679004569565343, 0.48074947900538073, 2299316000000, 
-2.300708519052643, -2.4910942559621776, 0.48195326828061014, 2299321000000, 
-2.0484154882779047, -2.8525365921590486, 0.4821459364762391, 2299326000000, 
-2.345440846241945, -3.098434283839631, 0.4827123156728228, 2299331000000, 
-2.4318167382586946, -3.2956351825339536, 0.4839593893665897, 2299336000000, 
-2.686364915529249, -3.536018917029778, 0.48480772922031207, 2299341000000, 
-2.820571860085792, -3.667247614510534, 0.48560831914815694, 2299346000000, 
-53.381975196976576, -27.12294170671507, 0.49894970058787735, 2299351000000, 
43.87019788913253, 0.9402737647925438, 0.47695069564900633, 2299356000000, 
-3.294512359979037, -0.593108946909787, 0.4785910488924355, 2299361000000, 
-7.169281030321271, -1.765841846717365, 0.4818533191675937, 2299366000000, 
-3.3768049800539424, -2.1469020888669754, 0.48321257000861706, 2299371000000, 
-2.0777645064410795, -2.5016365067571784, 0.4841543791902055, 2299376000000, 
-2.139568653969743, -2.7657579395470324, 0.4848938137653176, 2299381000000, 
-2.3809233464746016, -3.0100358212130134, 0.4851562167449445, 2299386000000, 
-2.532749832759942, -3.232907185709257, 0.4859498507417258, 2299391000000, 
-2.718215277794021, -3.338624287827651, 0.48676094734584313, 2299396000000, 
-51.95389045349473, -25.005472191141894, 0.5001517502306501, 2299401000000, 
42.62723014185878, 0.6879818414525272, 0.47892546834962935, 2299406000000, 
-3.20187229174308, -0.7026549206851274, 0.4806555690665321, 2299411000000, 
-6.931739671519653, -1.6418362484894473, 0.4832483165343673, 2299416000000, 
-3.114544561226882, -2.0871966065853056, 0.4850102716009306, 2299421000000, 
-2.0562118452172466, -2.4008221970467964, 0.4854522311925153, 2299426000000, 
-2.1310818713888837, -2.6533451428618005, 0.486045814773877, 2299431000000, 
-2.2515657687345163, -2.886330000648325, 0.4869398155013382, 2299436000000, 
-2.4535779706348326, -3.073097725264768, 0.4873753030633288, 2299441000000, 
-44.51565620223778, -17.287231478570245, 0.5063775048563812, 2299446000000, 
39.93269992927669, -0.8843317271178319, 0.48172754353512737, 2299451000000, 
4.2248418401967065, -0.39865188625109527, 0.48046197024477205, 2299456000000, 
-7.755251096177245, -1.3547405538461554, 0.4841703634148653, 2299461000000, 
-4.399710643862842, -1.7928127997321681, 0.48590641378165506, 2299466000000, 
-2.2783425489241598, -2.0896209946312854, 0.48703233686129294, 2299471000000, 
-2.0149544238939607, -2.4030105232774996, 0.48740033435991653, 2299476000000, 
-2.2552952108759143, -2.6612039773557754, 0.48804276486216774, 2299481000000, 
-2.448799146672321, -2.8471364511377857, 0.48924700463209503, 2299486000000, 
-41.40099793906316, -18.263646604315802, 0.5021834660900885, 2299491000000, 
46.65898000042367, 0.46656477948145264, 0.4838610433385032, 2299496000000, 
1.6053285172303944, -0.7299471555006526, 0.4827180176588732, 2299501000000, 
-7.17964863287347, -1.4244878341521248, 0.4859378407033244, 2299506000000, 
-3.454670722089346, -1.832293699857493, 0.4877982206750122, 2299511000000, 
-2.025096000973502, -2.2335546978849323, 0.48939962599532405, 2299521000000, 
-2.2673838891772364, -2.560218414541617, 0.490016547125973, 2299526000000, 
-2.439223992983346, -2.7317099304709145, 0.49083291314493177, 2299531000000, 
-26.622846043435302, -18.21230275470093, 0.49338713819025315, 2299536000000, 
16.315718995006947, -0.4560471922438655, 0.4831467412104235, 2299541000000, 
-7.7421099947773, -1.265805368298943, 0.485745634501854, 2299546000000, 
-4.614332505289803, -1.5843828730773946, 0.48876579876585147, 2299551000000, 
-2.2582901523178354, -1.8780797624085372, 0.4893521267732933, 2299556000000, 
-1.947183181274353, -2.108099584684479, 0.48994633487881534, 2299561000000, 
-2.152996103756086, -2.3372476366538995, 0.4902886625389733, 2299566000000, 
-2.3444292122751325, -2.510855283996544, 0.49139373661408375, 2299571000000, 
-5.8724369422019755, -10.469585894475399, 0.48514895862019525, 2299576000000, 
0.29615209746448623, -0.9481527900736574, 0.4850195031254969, 2299581000000, 
-5.818704306688901, -1.3460429425496516, 0.48826601889755283, 2299586000000, 
-3.147110973636087, -1.5768137325282643, 0.4892088568106505, 2299591000000, 
-2.0626886136901645, -1.8366044634293068, 0.4898529202062418, 2299596000000, 
-1.9700064018694772, -2.08439073597799, 0.49085340525965043, 2299601000000, 
-2.1970204085598173, -2.278245701918819, 0.4914067552660473, 2299606000000, 
-35.584697602446795, -15.70006244623387, 0.4986976646362543, 2299611000000, 
29.854879566290926, -0.4476911155858646, 0.4837807782137921, 2299616000000, 
-6.032090942221166, -1.2206182921163207, 0.4873627083292926, 2299621000000, 
-4.275994569387197, -1.4329082211576494, 0.48955595976475286, 2299627000000, 
-2.1854132395663624, -1.6638073566595017, 0.49026210243496976, 2299632000000, 
-1.866636192335219, -1.9394109881022117, 0.49068638735635006, 2299638000000, 
-53.38254664657102, -18.78330871845995, 0.5075822820414756, 2299643000000, 
38.19639521283559, 3.1163961321095788, 0.48846286791852983, 2299648000000, 
10.18298347597615, -1.0229157309711476, 0.48395905857153976, 2299653000000, 
-6.7543505547674965, -1.265589738120328, 0.487553488051856, 2299658000000, 
-4.491586105291855, -1.3435875743440537, 0.4896389322081468, 2299663000000, 
-2.23245760161949, -1.5873161655613, 0.4904804483671999, 2299668000000, 
-1.8588924036905534, -1.7991565089554016, 0.49089562072589854, 2299673000000, 
-48.47485471848629, -15.556481886606434, 0.5059345593917142, 2299678000000, 
43.25446736147123, 2.263856693709744, 0.4884848805956087, 2299683000000, 
4.120731088587162, -1.147655890197803, 0.4861557497649724, 2299688000000, 
-6.743098243939008, -1.230676381845024, 0.4875679894001375, 2299693000000, 
-3.9559034972681983, -1.2948509122941474, 0.48981729432118976, 2299698000000, 
-1.9493330729986222, -1.4980669671324482, 0.49133447960289706, 2299703000000, 
-1.752806023687662, -1.7349434481604964, 0.4917546153763502, 2299708000000, 
-31.637681203160906, -11.646670937137332, 0.4984923828092093, 2299713000000, 
32.9456215552071, -0.6289920835577946, 0.484854280946346, 2299719000000, 
-4.568590892423464, -1.2490281525687636, 0.4881146550408467, 2299724000000, 
-4.509951465916504, -1.186377992958792, 0.48995921062687586, 2299729000000, 
-2.335413062979535, -1.3348716246445829, 0.4904598546151073, 2299734000000, 
-1.7876170627645316, -1.4866752661706644, 0.4916657703396409, 2299739000000, 
-46.418321352648256, -13.735110550996607, 0.5054284508645747, 2299744000000, 
38.933251737260385, 2.2414091176057904, 0.4857695500900191, 2299749000000, 
-1.5269072834504274, -1.286054726163529, 0.486544522831816, 2299754000000, 
-5.79635748873343, -1.1333505144705613, 0.48884828345740594, 2299759000000, 
-2.988938558421856, -1.1531695444250882, 0.48996200008553165, 2299764000000, 
-25.36071994730239, -9.41466025026834, 0.5031345318132584, 2299773000000, 
34.60154731952438, 5.960297770908972, 0.486481591058505, 2299778000000, 
1.0871911333388322, -1.0723269998851237, 0.48556130638701467, 2299783000000, 
-4.695224958159763, -1.3119836484407836, 0.4876007882754098, 2299788000000, 
-2.5463930741583813, -1.1418102012148352, 0.48934300569878486, 2299793000000, 
-1.7122896092787208, -1.2248708555286416, 0.48988173130934815, 2299798000000, 
-36.43670090331845, -9.418167306420818, 0.49962775003358034, 2299803000000, 
31.865830400166598, 0.5659020465538446, 0.4838404330144875, 2299808000000, 
-3.5783442564077794, -1.3630497912634238, 0.4850717052138216, 2299813000000, 
-4.851370392430176, -1.0660396460282888, 0.4873742569024611, 2299818000000, 
-2.218753374929362, -1.0516955977814098, 0.4885472815948511, 2299824000000, 
-1.645468891485224, -1.196336762747084, 0.4894448884202378, 2299829000000, 
-15.462250705492847, -6.926490986828235, 0.48884293311250526, 2299834000000, 
12.030145613524565, -1.206106411687602, 0.4822710431871674, 2299839000000, 
-5.911044406754644, -1.1483316390677984, 0.4859900420630286, 2299844000000, 
-3.446186508173209, -0.9373345935785332, 0.48696280103688294, 2299849000000, 
-1.875288697076345, -0.9612098873610535, 0.4875974982786495, 2299854000000, 
-35.893226233818716, -8.658181509102791, 0.4977283296641531, 2299859000000, 
29.90165744304633, 1.5149203765048163, 0.48358777739256353, 2299864000000, 
-2.7460529936911033, -1.434056910838427, 0.48497631994651375, 2299869000000, 
-3.7831709936985365, -0.9048894200442207, 0.4866580611130989, 2299874000000, 
-2.678917775826288, -0.7985761718738332, 0.4878931657900093, 2299879000000, 
-2.9632319571830785, -1.5997100165091875, 0.4887903840277391, 2299884000000, 
-7.123243633624021, -4.317596985398746, 0.48729998672407565, 2299889000000, 
4.0291281524497835, -1.1106441428388003, 0.4856450275193911, 2299894000000, 
-3.3810132751593853, -1.3691096552130066, 0.48703799256203356, 2299899000000, 
-3.8603014544328085, -0.8094264164340605, 0.4881908953566826, 2299904000000, 
-2.1892594981910634, -1.195694259006776, 0.4890397699182439, 2299909000000, 
-2.1859946100237684, -1.265219038987864, 0.4893953704251505, 2299914000000, 
-2.2936594973685533, -1.3375041436406367, 0.49016997993424866, 2299919000000, 
-2.3499028210823383, -1.3466032477463963, 0.4903871606991381, 2299924000000, 
-3.4696622765373264, -3.13461829981033, 0.4867085211680422, 2299929000000, 
-2.272535503632159, -1.501439942318298, 0.48774297813911255, 2299934000000, 
-3.431646188263067, -1.138530471546202, 0.4885367125416428, 2299939000000, 
-2.333600985449843, -0.8635342926890113, 0.4890718427713279, 2299944000000, 
-2.077758941683155, -0.974820675605549, 0.4901287385342557, 2299949000000, 
-2.0838325868871075, -1.0405166907781787, 0.49069872784255514, 2299954000000, 
-2.210694806730277, -1.0820253971071778, 0.49114189582203, 2299959000000, 
-30.611057422555838, -14.502085750450947, 0.4982576397772354, 2299964000000, 
23.792689071834463, 10.625013384342244, 0.4885826226835141, 2299969000000, 
-2.0733240143865066, -1.1309201804709454, 0.4887115734517622, 2299974000000, 
-2.2352752558569233, -0.7631384500268783, 0.48996974492734285, 2299979000000, 
-1.943441015172442, -0.7158409059121121, 0.49008780858015716, 2299984000000, 
-1.9484328999357061, -0.7819163928326401, 0.4906108831406969, 2299989000000, 
-2.0290995652363755, -0.8242642531082616, 0.49134191390962845, 2299994000000, 
-2.0817984853180835, -0.8093232266858712, 0.49195128507767866, 2299999000000, 
-2.1349711905595568, -0.8265261889320675, 0.4924234263385362, 2300004000000, 
-2.1477810431739397, -0.7910410416323961, 0.49307913111118273, 2300009000000, 
-18.726297606122664, -9.284363482897222, 0.4932525830042171, 2300014000000, 
11.21373426469292, 6.649589109688898, 0.4893827127008937, 2300019000000, 
-1.9143343824268146, -0.7961148023376569, 0.49010827281689795, 2300024000000, 
-1.747176544275873, -0.5770886370250831, 0.49050446206672793, 2300029000000, 
-1.6951338473483095, -0.4620636643821375, 0.49108828972269913, 2300034000000, 
-1.7861512203640095, -0.4711696357111682, 0.49134143613534215, 2300039000000, 
-1.8809546196512732, -0.44785490839624076, 0.4918280934762493, 2300045000000, 
-1.956686420767244, -0.4776166775239046, 0.492665559137325, 2300050000000, 
-1.9701995745433412, -0.4424394650941787, 0.49291337236303523, 2300055000000, 
-2.0087805911647854, -0.4181758910388838, 0.4936115414879968, 2300060000000, 
-1.9784646562025874, -0.35909698826745945, 0.49433867671280735, 2300065000000, 
-1.9849461644632955, -0.33702454768503765, 0.4948860268891224, 2300070000000, 
-1.9440353867975657, -0.28889565402499573, 0.4953250727357298, 2300075000000, 
-1.9434204281500296, -0.24106055426891274, 0.49637251051746717, 2300080000000, 
-1.9364262078780796, -0.2262723323452946, 0.4966916148769255, 2300085000000, 
-1.9389330233194326, -0.16310861135635712, 0.4973630709186889, 2300090000000, 
-1.9014792241312626, -0.11170849900352765, 0.49814319622079106, 2300097000000, 
-1.857535619770278, -0.06402073765865468, 0.49805323768485943, 2300102000000, 
-1.8341966914776189, -0.06545201862964965, 0.4990726661089243, 2300107000000, 
-1.8442973905551876, 0.007115777585726374, 0.4991901429593139, 2300112000000, 
1.1430927903441064, 0.25172434973357655, 0.5081395444064665, 2300117000000, 
-3.6839696093102776, -0.061464992040400054, 0.5353918272464467, 2300122000000, 
-2.847204684802631, 0.053814197438429225, 0.5722305976602939, 2300127000000, 
-1.3976313928212492, -0.00743766367488024, 0.6237347250349216, 2300132000000, 
-0.8411281367248269, -0.007616877641962264, 0.6553836813315277, 2300137000000, 
0.7935282136691691, -0.017449688193481427, 0.6871599066781583, 2300142000000, 
-1.350032073278934, 0.44540366592532593, 0.7087250297724158, 2300147000000, 
-4.502837257971528, 0.811018774772104, 0.7126028883195831, 2300152000000, 
-4.42192083383313, 0.8383779144211998, 0.7156333263385598, 2300157000000, 
-1.1977286802764238, 0.28262084569278045, 0.7160791814170946, 2300165000000, 
-1.9058921130991993, 0.4633542770141677, 0.7136527016189255, 2300170000000, 
-1.6388119315416119, 0.545184495646956, 0.7130542575876616, 2300175000000, 
-1.5998167966862484, 0.6155491432571324, 0.7115986858332826, 2300180000000, 
-1.5454778408770367, 0.6619169786906371, 0.7107519640246744, 2300185000000, 
-1.5136310807127298, 0.6732273167597317, 0.7095633815607559, 2300190000000, 
-1.4840262579559578, 0.7493162354519372, 0.7080196568281177, 2300195000000, 
-1.470478841804948, 0.7446381367740652, 0.7076916587031428, 2300200000000, 
-1.4588700114690112, 0.8076687943056876, 0.7064300768869932, 2300205000000, 
-1.3969226891127782, 0.84837325713133, 0.7053134525017248, 2300210000000, 
-1.3997216279252191, 0.8756034628879608, 0.7044590664629788, 2300215000000, 
-1.4559539847176508, 0.9165131347984876, 0.7038157560709218, 2300220000000, 
-1.3463906917613568, 0.9342485030897486, 0.7023544864639214, 2300225000000, 
-1.316030888954927, 1.0275508863928606, 0.7017011456460136, 2300231000000, 
-1.2680120110631208, 1.0459673039402144, 0.6999564732834509, 2300236000000, 
-1.2374924617014365, 1.039784514746862, 0.6994786123731503, 2300241000000, 
-1.2295780614979925, 1.0905981260024191, 0.6986540999750024, 2300246000000, 
-1.1891612203451467, 1.1353409145778903, 0.6981106962177859, 2300251000000, 
-1.1699156212520565, 1.1488037333411187, 0.6966418446289734, 2300256000000, 
-1.133268677364678, 1.187556830323531, 0.6958690089207065, 2300261000000, 
-1.1507166703499312, 1.239513757412718, 0.6946510321750713, 2300266000000, 
-1.1131886502441988, 1.2625222367131244, 0.6940452865975999, 2300271000000, 
-1.0585749652463738, 1.321850373892293, 0.6933821678942339, 2300276000000, 
-1.0434394703628025, 1.3409531269441854, 0.6922711582891135, 2300281000000, 
-1.018925286548227, 1.407927783189729, 0.6914498074438121, 2300286000000, 
-1.0212728574627918, 1.388711082467016, 0.6905739735266568, 2300291000000, 
-0.9377300808300996, 1.452652288487832, 0.6899222219187972, 2300296000000, 
-0.9368282730109395, 1.4916856483057945, 0.689043032377628, 2300301000000, 
-0.8976196348590815, 1.5257585437982648, 0.6879930381164968, 2300307000000, 
-0.8674629481865359, 1.5545029264199244, 0.6866974599042954, 2300312000000, 
-0.85153432167267, 1.5906782429914805, 0.686468372976792, 2300317000000, 
-0.9083781261529247, 1.6333160509903157, 0.685666559506328, 2300322000000, 
-0.7650087590301362, 1.637543600024865, 0.684914804641922, 2300327000000, 
-0.727926959128156, 1.6819095888148563, 0.6839729575832748, 2300332000000, 
-0.7292806873980746, 1.7265985874694245, 0.6834328701297807, 2300337000000, 
-0.6953677133522099, 1.7298963525350801, 0.6822915381054991, 2300342000000, 
-0.666047160737945, 1.7561946580496137, 0.6820487959680938, 2300347000000, 
-0.6212901149896218, 1.7665761505301285, 0.6810309026416023, 2300352000000, 
-0.5922555072344604, 1.8239211304411964, 0.6804617590778719, 2300357000000, 
-0.5850020357270783, 1.8591741814270588, 0.6798696807118553, 2300362000000, 
-0.5584484177004281, 1.8767582556636893, 0.6790719224959536, 2300367000000, 
-0.5478587369703927, 1.9234132196347227, 0.6786623226573196, 2300372000000, 
-0.48586174147821665, 1.9377656110193446, 0.6778488456252689, 2300377000000, 
-0.46050882857944697, 1.979632083761062, 0.6776963989061942, 2300382000000, 
-0.5454260805706269, 2.0055175481177554, 0.6770813392142904, 2300387000000, 
-0.42980599313166784, 2.0110059842544437, 0.6763915105682896, 2300392000000, 
-0.38839972481463036, 2.069846899438129, 0.6759177249102669, 2300397000000, 
-0.37048942015123826, 2.0776947133757497, 0.6753369259186716, 2300402000000, 
-0.29635635227849766, 2.122386819080842, 0.6749312875117829, 2300407000000, 
-0.3006973333364043, 2.1176612388136524, 0.6745007139635361, 2300412000000, 
-0.2577479406485398, 2.165773414083903, 0.6742098793855411, 2300417000000, 
-0.21338128232115766, 2.169093851912573, 0.673852210977136, 2300422000000, 
-0.21104686610622136, 2.1966731466010594, 0.6735329273402169, 2300427000000, 
-0.15715328182122715, 2.246274427469372, 0.6733665458187251, 2300432000000, 
-0.1448119689526189, 2.2284748514237105, 0.6730222183144897, 2300437000000, 
-0.1180633011805973, 2.256393422315544, 0.6723370565474893, 2300442000000, 
-0.08439938172976018, 2.28971185353273, 0.6719555600444092, 2300447000000, 
-0.07302194962644136, 2.3352555293268686, 0.6719303666193259, 2300452000000, 
-0.01028634678882369, 2.3694392296925995, 0.6711842452757767, 2300457000000, 
0.027353740595442096, 2.3605582935488876, 0.6706925464152732, 2300462000000, 
0.05992817466794243, 2.40376135117978, 0.6708616857912274, 2300467000000, 
0.04807802786341954, 2.3915788743675352, 0.6702956489045675, 2300472000000, 
0.13442647559260454, 2.4042244818703624, 0.6696025041269529, 2300477000000, 
0.1407143724426534, 2.4906201237093835, 0.6695106211862051, 2300482000000, 
0.16474286001581273, 2.5073151588739586, 0.6690169356042814, 2300487000000, 
0.0935047155707373, 2.4940148502582216, 0.6690175683505388, 2300492000000, 
0.2159412030477936, 2.54972646466433, 0.6690273233667455, 2300497000000, 
0.11746188109351442, 2.5629690431099705, 0.668338767004935, 2300502000000, 
-0.03298319164802175, 2.4727942001260272, 0.6679579375338881, 2300507000000, 
0.2581995942484785, 2.5884281999898784, 0.667210088099262, 2300514000000, 
0.3468588609796114, 2.6069053657939323, 0.6671529076636032, 2300519000000, 
0.3977010133233311, 2.6110670291840976, 0.6671039147883147, 2300524000000, 
0.4405447262553988, 2.6385715733328254, 0.6666667800884564, 2300529000000, 
0.4467979016380522, 2.6691670373495398, 0.6665933330212503, 2300534000000, 
0.5116507844731275, 2.6984880072785793, 0.6664620813514519, 2300539000000, 
0.564221829059871, 2.713759958506355, 0.6660936850089092, 2300544000000, 
0.5516875730928165, 2.7274500417976912, 0.6658600070540741, 2300549000000, 
0.5840533666270575, 2.7473317392305594, 0.6660286400246135, 2300554000000, 
