acc_x, acc_y, angular_z, stamp, 
-7.647508765226473, -1.3704218200552183, -0.3127124967577548, 2308315000000, 
-11.313159166186427, -2.0490513978745644, -0.30911505035364584, 2308320000000, 
-7.62052260456317, -1.3889953083562052, -0.30591134051715274, 2308325000000, 
-11.501439045205906, -2.0927294318206973, -0.3021833935909749, 2308330000000, 
-7.644623008344875, -1.4126712873493172, -0.29919814344655016, 2308335000000, 
-11.325639760613875, -2.156221867857118, -0.2952961939382389, 2308340000000, 
-7.620108756712308, -1.4676962924981904, -0.2927766192337405, 2308345000000, 
-11.487898509573423, -2.177238312079073, -0.2888741383922904, 2308350000000, 
-7.616032738510552, -1.490100928705092, -0.2858714841103722, 2308355000000, 
-9.43691419511426, -1.8406952386692605, -0.2823144800546302, 2308360000000, 
-9.486470608996441, -1.8578817596496942, -0.27936864822642243, 2308365000000, 
-11.423725895607912, -2.24168155485812, -0.2756882464059079, 2308370000000, 
-7.606993289691775, -1.5498800159287638, -0.2730945899652569, 2308375000000, 
-9.43788331462293, -1.9091410029477636, -0.26922937220110943, 2308380000000, 
-9.47879995291324, -1.9612785770495034, -0.2661463607844804, 2308385000000, 
-11.414269641670503, -2.3532767904576097, -0.2624844177663009, 2308390000000, 
-7.603757471126057, -1.5753210249336167, -0.25968455510231925, 2308395000000, 
-11.334216122207454, -2.3367897988791686, -0.25571801625917884, 2308400000000, 
-9.520196969434346, -2.0226237346993337, -0.2518706446234793, 2308405000000, 
-7.564242897697707, -1.59770048035868, -0.24964943702933184, 2308410000000, 
-11.29474048669433, -2.427769042050514, -0.2451968047121167, 2308415000000, 
-6.371528648548696, -1.3840276614897606, -0.2439134835991734, 2308420000000, 
-9.413875036119746, -2.0445772199371404, -0.2396391776081637, 2308425000000, 
-9.528403830680736, -2.0646856794627024, -0.23607044598586238, 2308430000000, 
-11.325648033425617, -2.486301847464385, -0.23229350803582852, 2308435000000, 
-8.14334552741706, -1.8210220351457524, -0.22824452414139818, 2308442000000, 
-9.477725123417082, -2.099554961942576, -0.22546007544094088, 2308447000000, 
-11.323544234064377, -2.5380737111320695, -0.22172548640821882, 2308452000000, 
-7.58193498591679, -1.7250439598032825, -0.21924866561176562, 2308457000000, 
-11.348499815681237, -2.5977756626145223, -0.2152730891002819, 2308462000000, 
-7.592571348870418, -1.7295598118257436, -0.21273193255346287, 2308467000000, 
-11.28972779478741, -2.6018529587127546, -0.2089060106194282, 2308472000000, 
-9.415420677352296, -2.2241600314146486, -0.20371783068827554, 2308479000000, 
-7.566642798141006, -1.7560625373105327, -0.20130765896477265, 2308484000000, 
-9.436632599353908, -2.2439087913448788, -0.19876894992314534, 2308489000000, 
-9.437064494923867, -2.2526584264622262, -0.1946610536003764, 2308494000000, 
-9.4419693954093, -2.2191531282023944, -0.19250853702950407, 2308499000000, 
-11.302696232219839, -2.712427667764887, -0.18839367860859918, 2308504000000, 
-7.556986736092363, -1.7942082149904937, -0.1858737954381556, 2308509000000, 
-11.303041420435033, -2.694678773745939, -0.18199315230170532, 2308514000000, 
-7.577849779505397, -1.8262588048514334, -0.17996355435173078, 2308519000000, 
-11.276117657876277, -2.761227854097866, -0.17608876678437746, 2308524000000, 
-7.5602529621853005, -1.845629083848482, -0.1731162749010116, 2308529000000, 
-11.31689837401627, -2.7980171248604573, -0.16941491487269011, 2308534000000, 
-7.524370916170132, -1.8744442863843218, -0.16705141948131652, 2308539000000, 
-9.412425282765808, -2.339090583232412, -0.16304625060914207, 2308544000000, 
-9.44116974267162, -2.3608840153841983, -0.16070860551468916, 2308549000000, 
-11.326250433360691, -2.828512130377026, -0.1569559026606102, 2308554000000, 
-7.539414722620408, -1.8583964863085802, -0.15416650524114056, 2308559000000, 
-11.246831680720174, -2.853387016565713, -0.15017238615280976, 2308564000000, 
-7.559972790040534, -1.905987968523251, -0.1483505457253234, 2308569000000, 
-11.271026594473447, -2.8892937957934373, -0.144451681943054, 2308574000000, 
-7.574791520873053, -1.9068279139079072, -0.14201075726529572, 2308579000000, 
-11.268489743487638, -2.87571759136255, -0.1382009160016461, 2308584000000, 
-7.536722412348764, -1.9403751409381882, -0.13564611454604203, 2308589000000, 
-11.269581671979259, -2.9187629521610328, -0.1318175675079072, 2308594000000, 
-7.56476189305557, -1.9539386364545304, -0.12946559593439402, 2308599000000, 
-9.392481041370266, -2.4719438465111887, -0.1258852351952991, 2308604000000, 
-9.403345358061163, -2.454143198702296, -0.1228333024374206, 2308609000000, 
-11.259924058605005, -2.9195650628208876, -0.1191407063392985, 2308614000000, 
-9.364712704372579, -2.475516022963686, -0.11586693595266943, 2308619000000, 
-7.5498668511190115, -1.9748129957290426, -0.11312170281741274, 2308624000000, 
-12.489204963192131, -3.3385923387629344, -0.11083133035425823, 2308629000000, 
-8.09663374697611, -2.134314451152364, -0.10689767309163116, 2308634000000, 
-9.405072646010835, -2.5074902785797155, -0.1040845502662554, 2308639000000, 
-9.389103572432077, -2.5016283269158177, -0.1006489494907635, 2308644000000, 
-11.261839102633296, -3.0172343853195986, -0.09660919460101684, 2308649000000, 
-9.399522436649177, -2.523152881430717, -0.09410986571403901, 2308654000000, 
-7.5353935987425675, -2.031347883156022, -0.09206049482020572, 2308659000000, 
-11.2662998492461, -3.014800372054194, -0.08819828363807904, 2308664000000, 
-7.546906092394804, -2.05013055977195, -0.08586812107017573, 2308669000000, 
-11.236030445848922, -3.0785312356157477, -0.08181666788866863, 2308674000000, 
-7.515002267304757, -2.0448307215232657, -0.07918920678097587, 2308679000000, 
-11.256755945219782, -3.067141845464737, -0.07575642251922858, 2308684000000, 
-7.513643022023778, -2.065953230693382, -0.07328036602773913, 2308689000000, 
-9.370003442302176, -2.583653353897617, -0.06943167769333082, 2308695000000, 
-11.230309954169302, -3.054697589176544, -0.06587677454471091, 2308700000000, 
-7.4981398334331955, -2.0761334360585795, -0.06361826364527931, 2308705000000, 
-11.271230398288207, -3.113916360159964, -0.059755607647533175, 2308710000000, 
-9.37712351164285, -2.6304655575767977, -0.05589778829561157, 2308715000000, 
-9.38540332960142, -2.5923507571208293, -0.05350045379057803, 2308720000000, 
-9.394011097790138, -2.6253468687289585, -0.04979461496614873, 2308725000000, 
-9.38359645663892, -2.6185387467510566, -0.04793793454215232, 2308730000000, 
-7.552530978941223, -2.0408361062215135, -0.04527874890856412, 2308735000000, 
-11.280724576998425, -3.122811778332907, -0.04167344163934336, 2308740000000, 
-7.530527515975239, -2.1407146346760397, -0.03920944694050011, 2308745000000, 
-11.260004069197363, -3.112739017406117, -0.03531149157246538, 2308750000000, 
-7.533106364336509, -2.0922100135483994, -0.03320423630636444, 2308755000000, 
-11.266581091245566, -3.1493281279032384, -0.028972625626445706, 2308760000000, 
-7.517387365231048, -2.0948225031402945, -0.026694415907785894, 2308765000000, 
-11.22736743219177, -3.146389478667058, -0.022816957537257165, 2308770000000, 
-7.529195523351129, -2.094702053366267, -0.020350677671225652, 2308775000000, 
-11.227481317236458, -3.1380206793626164, -0.01674061799489146, 2308780000000, 
-7.533705251364983, -2.1061015570564234, -0.01408379043385899, 2308786000000, 
-9.365797766473891, -2.6621040659964494, -0.010494356924696989, 2308791000000, 
-11.25942852354099, -3.1333719217105913, -0.006713673844902688, 2308796000000, 
-7.514902221922089, -2.1022155930937503, -0.004463131787733059, 2308801000000, 
-11.225501046822922, -3.1609080847559063, -0.0007976436951228395, 2308806000000, 
-7.527296257825288, -2.098708238930739, 0.0016039023003032984, 2308811000000, 
-11.23475740112269, -3.1629055240223365, 0.005294997782162953, 2308816000000, 
-7.514403870784473, -2.1049786555277246, 0.007501239918226923, 2308821000000, 
-11.264565033179265, -3.150934366525327, 0.011755157143671207, 2308826000000, 
-7.506794494842483, -2.103762127910453, 0.014080138408836769, 2308831000000, 
-11.255294754558298, -3.186680123851336, 0.017705966289446626, 2308836000000, 
-7.491854774130143, -2.139006074067566, 0.02035370252309501, 2308841000000, 
-11.249594869514352, -3.1832333781177677, 0.023673912543456313, 2308846000000, 
-7.5334827990108035, -2.1206314607480112, 0.02618358668930003, 2308852000000, 
-9.383370436177822, -2.6764239218096244, 0.029861456500045677, 2308857000000, 
-9.396637202171803, -2.632338950264945, 0.03335973034062396, 2308862000000, 
-9.367090073991907, -2.662537590258511, 0.03588598559931797, 2308867000000, 
-9.401409348475692, -2.6676594007078096, 0.03968496066916653, 2308872000000, 
-9.364347753874124, -2.623613312749136, 0.04201314625183302, 2308877000000, 
-11.27067354007346, -3.1911234316795674, 0.04550813904356106, 2308882000000, 
-7.514303954513354, -2.1175118814227147, 0.04796227046928493, 2308887000000, 
-11.257268269983964, -3.1473260523089968, 0.051466837928337165, 2308892000000, 
-7.53253140352951, -2.1190522111014745, 0.05407765795186682, 2308897000000, 
-11.284092124097473, -3.171465033759289, 0.0578915935555371, 2308902000000, 
-9.372026571060188, -2.6010227922656437, 0.0624266428092155, 2308909000000, 
-9.393178334257541, -2.5991892545925093, 0.06531487029638365, 2308914000000, 
-7.532008404564901, -2.1023751126203005, 0.06762080448837668, 2308919000000, 
-9.418247777024172, -2.6113476572521157, 0.07259819376937385, 2308926000000, 
-9.391061965142377, -2.6175752835076374, 0.07332638840706272, 2308931000000, 
-10.70552719519431, -2.9941839730800655, 0.07835432577925222, 2308936000000, 
-7.523994472744611, -2.108318297188864, 0.08121575704942699, 2308941000000, 
-11.267307759036616, -3.13063354140355, 0.08492352180314033, 2308946000000, 
-7.048459017259892, -3.5799150164848816, 0.0867285519281293, 2308951000000, 
-9.74535609589212, -1.3733515157672862, 0.09102605287915741, 2308956000000, 
-9.647632335931775, -1.4565026849084666, 0.09421567238129884, 2308961000000, 
-12.038315545426203, 0.10898426985607916, 0.09865722993833388, 2308966000000, 
-9.693958269121053, -1.5457580271712639, 0.10287884843015466, 2308971000000, 
-9.651245754641918, -1.5821195683633604, 0.10531082689586752, 2308976000000, 
-7.290469965355945, -3.209594107082779, 0.10746739851263372, 2308981000000, 
-14.90269054747501, -15.82089223985, 0.10948742369640178, 2308986000000, 
-7.139863477492943, -3.2985893130864268, 0.11125906439957622, 2308991000000, 
-9.584059263646017, -4.375689160047944, 0.11437235470469818, 2308996000000, 
-8.831721311381816, -4.042175745264683, 0.11689673919244435, 2309001000000, 
-8.522953918970206, -2.5325548696827322, 0.11995633460173004, 2309006000000, 
-9.278875065114702, -2.485563961376058, 0.12248263471201266, 2309011000000, 
-9.84941369378164, -2.6467822514647743, 0.1263993324996362, 2309016000000, 
-9.246820888064804, -2.510687229014444, 0.12893407148792474, 2309021000000, 
-10.388456862978897, -2.7836932387721194, 0.13237230403940273, 2309026000000, 
-7.440330421309081, -1.9877628964084975, 0.13517925455893498, 2309031000000, 
-11.702230886282692, -3.115827789901735, 0.1387285951956062, 2309036000000, 
-7.4077600158543735, -1.9595781405660349, 0.14084114610855344, 2309041000000, 
-10.53576863999985, -2.7743240551257604, 0.14458519362953892, 2309046000000, 
-9.73577077011572, -2.5412329572337473, 0.14854824614808393, 2309051000000, 
-5.305832440536574, -1.4080301836276263, 0.14939296443160305, 2309056000000, 
-10.627488725654349, -2.7612524075867295, 0.1541973124591911, 2309061000000, 
-9.28858777629832, -2.4329767137039533, 0.15673422603188494, 2309066000000, 
-7.415229886317328, -1.9528161435559648, 0.15922214310583255, 2309071000000, 
-11.57580922826086, -3.001319546357417, 0.1631299793718681, 2309076000000, 
-7.441817878467052, -1.9382452014442515, 0.16526710193314645, 2309081000000, 
-10.706263202708811, -2.7465543958517054, 0.1690595074596124, 2309086000000, 
-8.260096994301286, -2.1337638922160265, 0.1731966872319316, 2309092000000, 
-9.29203992226308, -2.363115676602426, 0.17558785927309536, 2309097000000, 
-9.278102272877247, -2.371219519538953, 0.18046898545561182, 2309104000000, 
-9.278030508608579, -2.339062933621891, 0.18340057639508486, 2309109000000, 
-10.790796109495206, -2.7155081542045254, 0.1869741350769144, 2309114000000, 
-7.425471718043837, -1.888926086450173, 0.18908366700125304, 2309119000000, 
-11.450185554799006, -2.8685794101944997, 0.19274899844330642, 2309124000000, 
-7.424417664757414, -1.8416340630977264, 0.19510894195194708, 2309129000000, 
-10.833671443268399, -2.6883994516669243, 0.1988648928280413, 2309134000000, 
-7.447995529759942, -1.8379633283590677, 0.20169648673057974, 2309139000000, 
-9.509415156041763, -2.3254040006866106, 0.20531805382764634, 2309144000000, 
-10.89695812922143, -2.64742807026139, 0.20921024302160265, 2309149000000, 
-9.343233718870856, -2.275178513164712, 0.21139194025048882, 2309154000000, 
-7.444745077208295, -1.8028947043108352, 0.21394335111809418, 2309159000000, 
-11.371558346355648, -2.747795784830538, 0.21840225965147506, 2309164000000, 
-7.468938041224307, -1.7717259499402769, 0.2206048111243138, 2309169000000, 
-10.965376055152563, -2.612957589139456, 0.22437618012846708, 2309174000000, 
-7.445476030773212, -1.7481498093233272, 0.22657445792413622, 2309179000000, 
-11.362630181843011, -2.6795378384788826, 0.23088428992758875, 2309184000000, 
-7.425247064733722, -1.7581658341876092, 0.2326618312178128, 2309189000000, 
-11.000396625907598, -2.562758671008221, 0.23711314040611733, 2309194000000, 
-7.4717706550248755, -1.7379868433593202, 0.2393469068267675, 2309199000000, 
-11.350018771869589, -2.590215446924927, 0.24335030127189133, 2309204000000, 
-7.456999861867188, -1.7273598393695002, 0.24564154472544636, 2309209000000, 
-11.072189944385107, -2.526290301325152, 0.24941112647005995, 2309214000000, 
-7.501828224706753, -1.7127519402274072, 0.2519609868776443, 2309219000000, 
-11.337665414098819, -2.5561648764602327, 0.255625651527712, 2309224000000, 
-7.486262998063899, -1.6585606442432457, 0.2582717316716564, 2309229000000, 
-9.241773424293859, -2.047424117892213, 0.26225312515355303, 2309234000000, 
-9.342929582383036, -2.064575829444159, 0.26443525972873405, 2309239000000, 
-11.330950624703505, -2.471036066798654, 0.2686504042791133, 2309244000000, 
-7.459772102092711, -1.6493711302278955, 0.27069794835490246, 2309249000000, 
-11.107894475720304, -2.379188734465344, 0.27477520042594505, 2309254000000, 
-7.5130254328947785, -1.6096157954073893, 0.2774855251928402, 2309259000000, 
-11.311975906510597, -2.422177062409399, 0.28119851424672054, 2309264000000, 
-7.500908055526366, -1.5823394751888986, 0.2836591527746034, 2309269000000, 
-11.117389488850089, -2.3414134811940075, 0.28810499526159067, 2309274000000, 
-7.498009545474398, -1.5669119099621804, 0.2905103835704638, 2309279000000, 
-11.302682283182175, -2.39696277183685, 0.29455826826923276, 2309284000000, 
-7.522244742991589, -1.5338172486018051, 0.29695576033844256, 2309289000000, 
-11.16174203719114, -2.272413252603762, 0.3007487349999147, 2309294000000, 
-7.497342853308452, -1.5157152309101358, 0.30352916266842583, 2309299000000, 
-9.375878724945462, -1.8709258052643076, 0.30627124794505445, 2309304000000, 
-9.471063085087867, -1.8894593218931013, 0.30972720237559415, 2309309000000, 
-11.204824422160698, -2.186512074880216, 0.31409047151042135, 2309314000000, 
-9.46888117629064, -1.845982652470047, 0.3183136370561304, 2309319000000, 
-9.413541516294096, -1.8063768758951686, 0.32077207247572864, 2309324000000, 
-7.551837477842204, -1.4152571613509046, 0.32329197247370095, 2309329000000, 
-11.173111072834647, -2.1336655599603667, 0.3270533722844871, 2309334000000, 
-8.104754609433542, -1.506923465893824, 0.3315147326225608, 2309340000000, 
-9.393896067789694, -1.726496978338697, 0.3338419185902037, 2309345000000, 
-10.74394946626476, -1.9750014013308, 0.3393448913954971, 2309351000000, 
-9.425420016457208, -1.6890305274728998, 0.34187231358611336, 2309356000000, 
-7.5485886745627635, -1.3575453468244447, 0.3447514667118602, 2309361000000, 
-11.258002045733322, -1.9705579287331827, 0.348594565215919, 2309366000000, 
-9.423216874934512, -1.607181295849469, 0.3536389648196323, 2309373000000, 
-7.566816565073816, -1.334006561912477, 0.35640018679351493, 2309378000000, 
-11.338918634362342, -1.9432682151340293, 0.36043803602188407, 2309383000000, 
-9.434255350407724, -1.5586921234559352, 0.36323060863139583, 2309388000000, 
-9.392442506180778, -1.563144023005921, 0.3669674991504566, 2309393000000, 
-9.42589129984872, -1.5420407359242188, 0.36986997551930484, 2309398000000, 
-7.555475614396827, -1.222612703338156, 0.37239654340422645, 2309403000000, 
-11.354754846418222, -1.8227018686960657, 0.3764819020050592, 2309408000000, 
-7.585092609099824, -1.2128969851985416, 0.37937363299081683, 2309413000000, 
-11.295881969094822, -1.7782416933839278, 0.38306423747202367, 2309418000000, 
-16.898065304815542, 7.187186366556221, 0.39355867471015377, 2309423000000, 
-7.722089710169933, -1.2039341790985716, 0.39669480963610004, 2309428000000, 
-9.690267134388735, -1.4921548124945665, 0.39938591168555, 2309433000000, 
-13.219628514142974, -1.9923564763793569, 0.40353954750313487, 2309438000000, 
-8.33214234214758, -1.247815786391111, 0.407776903419441, 2309443000000, 
-7.742358736026725, -1.1578376016231648, 0.4105153189444666, 2309448000000, 
-10.923935100599282, -1.5536754827423718, 0.4152353959269032, 2309454000000, 
-9.624052648983156, -1.3581367508178432, 0.41836388655232765, 2309459000000, 
-10.198382332504602, -1.411675086991596, 0.42164708027220554, 2309464000000, 
-7.754280436334335, -1.0524845143248511, 0.4244109077551872, 2309469000000, 
-10.69539431797432, -1.441413054158848, 0.4290505960433308, 2309474000000, 
-9.66068975391886, -1.2914706329001844, 0.4320114477725614, 2309479000000, 
-10.416256028027647, -1.3667494523089818, 0.43567496444270915, 2309484000000, 
-7.804392597258074, -1.0119365635238526, 0.4385594067181192, 2309489000000, 
-9.683184637541814, -1.2294313573430464, 0.44133737351313207, 2309494000000, 
-11.068382061786098, -1.4172847328526907, 0.44677622286309765, 2309499000000, 
-9.683715583776447, -1.1796861920995907, 0.44997719899646016, 2309504000000, 
-10.464122486505797, -1.2432261799449194, 0.45454738967052316, 2309509000000, 
-9.6518587918205, -1.0960075643253404, 0.457441667375476, 2309514000000, 
-7.758217183911662, -0.899823080949194, 0.46013835628880884, 2309519000000, 
-10.74852872610231, -1.2318869594101298, 0.464181143375971, 2309524000000, 
-7.782744048158319, -0.8507650721572417, 0.46709713313357526, 2309529000000, 
-10.339753550790487, -1.1272647362110095, 0.4711507250910529, 2309534000000, 
-9.657449065452697, -1.0297209983844215, 0.47447528208549045, 2309539000000, 
-10.922102486732904, -1.1201870838991606, 0.4784981359180051, 2309544000000, 
-7.660231263809684, -0.7236443856648717, 0.480228198495276, 2309549000000, 
-11.070488385200475, -1.0822848384395136, 0.48579058321724533, 2309554000000, 
-9.6823670141274, -0.9099272650242094, 0.4888797494183822, 2309559000000, 
-9.231121903441407, -0.8513945038806575, 0.4926110978046124, 2309564000000, 
-7.778603510919099, -0.7016944421443007, 0.4955023773841134, 2309569000000, 
-10.175146579859055, -0.9258247622374692, 0.5004518945773195, 2309574000000, 
-11.110500720094626, -0.9512389731622494, 0.5046652564729514, 2309579000000, 
-9.756746956465479, -0.7814905788831911, 0.5074238511848742, 2309584000000, 
-10.124204661794609, -0.821122292737209, 0.5118486642750734, 2309589000000, 
-9.67265439908325, -0.7723787112893666, 0.5147886370043641, 2309594000000, 
-7.77334568480186, -0.5860926847651909, 0.5177481795065866, 2309599000000, 
-11.052278739148566, -0.8514683588052292, 0.5236100129753003, 2309605000000, 
-9.686615824788593, -0.7070221798628219, 0.5265988979681878, 2309610000000, 
-9.36419191850131, -0.6200145956662391, 0.5308257162044818, 2309615000000, 
-7.784734270593864, -0.5283766106971324, 0.5342214261848535, 2309620000000, 
-12.014835559427581, -0.7553519086795688, 0.5386650562450468, 2309625000000, 
-9.722889183192738, -0.5751449560817552, 0.5413957054376407, 2309630000000, 
-9.710183258016833, -0.5556715822481648, 0.5445984879348933, 2309635000000, 
-9.46288656831586, -0.4934939971434009, 0.548900898524714, 2309640000000, 
-9.98095110574375, -0.5167213903447296, 0.553295420923173, 2309645000000, 
-9.715618503509866, -0.4747203817367261, 0.5566164205440532, 2309650000000, 
-9.484676973104234, -0.418634524176285, 0.5609467373872111, 2309655000000, 
-9.7051808675559, -0.4224862398818653, 0.5638558901429263, 2309660000000, 
-9.947485643725006, -0.38748131565237587, 0.5688760479184132, 2309666000000, 
-9.498501674877659, -0.3397492421415319, 0.5736815776505668, 2309671000000, 
-9.719700943435592, -0.32977304545155484, 0.5760492707363596, 2309676000000, 
-9.88354907411106, -0.28601703528595107, 0.5808904342316951, 2309681000000, 
-9.713679120647956, -0.28408928040902676, 0.5839894073967028, 2309686000000, 
-9.519513049586221, -0.27362280515723714, 0.5882829206736129, 2309691000000, 
-7.804587438140582, -0.1868050831011599, 0.5912515783388529, 2309696000000, 
-9.712513801338332, -0.20402195310189622, 0.5943349587410964, 2309701000000, 
-11.818718112464127, -0.1864677432453092, 0.5991345597664538, 2309706000000, 
-7.745085088911275, -0.10207006061701694, 0.6022123986216903, 2309711000000, 
-9.673030300889113, -0.10230667068195416, 0.608519345329231, 2309718000000, 
-9.697108820946099, -0.05249961596310769, 0.6114754248953714, 2309723000000, 
-11.446765863292843, -0.0737620164035297, 0.6159409630918364, 2309728000000, 
-7.785337389224245, -0.03097142456615367, 0.6187436112215384, 2309733000000, 
-11.764092678933801, 0.016346513648785123, 0.6237657199175224, 2309738000000, 
-27.85455545631363, 0.17052646948986078, 0.6126855301948659, 2309743000000, 
-7.739370774510691, 0.05690493670061402, 0.609457325816968, 2309748000000, 
-10.057743423204945, 0.08858159298987657, 0.6060919914738894, 2309753000000, 
-7.7382758603208295, 0.07616990762390691, 0.6027471495132692, 2309758000000, 
-13.078404508268612, 0.15895679493869966, 0.5981916032171829, 2309763000000, 
-7.753247874746026, 0.13726927902007974, 0.5950191646542249, 2309768000000, 
-10.324040819678176, 0.17751210858644662, 0.5909707234230974, 2309773000000, 
-7.757410071621545, 0.18659574493971917, 0.5885065054579897, 2309778000000, 
-12.82798777330438, 0.32250881339518744, 0.5832109247574565, 2309783000000, 
-7.735959060629282, 0.22470373241473351, 0.5803153537404054, 2309788000000, 
-10.43692180683924, 0.32759778555291563, 0.5766459937938827, 2309793000000, 
-7.756404096666426, 0.24476612199919348, 0.5733965353671304, 2309798000000, 
-9.710873340735741, 0.36156838274487757, 0.567348166852143, 2309805000000, 
-9.681086834920523, 0.37062370945338086, 0.5645932265252213, 2309810000000, 
-12.548822100972602, 0.5309319988110188, 0.5595635443059134, 2309815000000, 
-7.7425416110812835, 0.3579040791768694, 0.5562482414441694, 2309820000000, 
-10.723106632216385, 0.500294756045136, 0.5526508496020726, 2309825000000, 
-7.76058345519721, 0.37946587883348026, 0.5496195845166859, 2309830000000, 
-12.350181126245868, 0.6581385883012557, 0.5452040260860871, 2309835000000, 
-7.7395697328359745, 0.40726479379584235, 0.5420466015835601, 2309840000000, 
-9.6298826199134, 0.5526079238022988, 0.5391040392076288, 2309845000000, 
-9.050363994041666, 0.5721956147447216, 0.5351876789641793, 2309850000000, 
-12.238906516317575, 0.7846495150084157, 0.5306016974278508, 2309855000000, 
-7.7286546321626926, 0.503268926325016, 0.5274981357393398, 2309860000000, 
-9.135131168775631, 0.6228167410810639, 0.5231984371093877, 2309865000000, 
-9.680251423774104, 0.70590725133283, 0.5205179400625922, 2309870000000, 
-12.100671460037663, 0.9207759309753591, 0.5164864364196666, 2309875000000, 
-9.202877362937654, 0.6798733527361617, 0.511901322805247, 2309880000000, 
-9.653176260208191, 0.7443693606450317, 0.5090988563569286, 2309885000000, 
-7.714644280113215, 0.5967840272391756, 0.5060856516079085, 2309890000000, 
-10.023751407708366, 0.8208926774593637, 0.5019816294298166, 2309895000000, 
-11.097936558705157, 0.9581923944274455, 0.49748720438594013, 2309900000000, 
-9.616743461434513, 0.8157615557967013, 0.4948393578120515, 2309905000000, 
-7.725183255422564, 0.6958829774652883, 0.4925527188743027, 2309910000000, 
-11.929600086496931, 1.1045452531207094, 0.4881680569781241, 2309915000000, 
-7.667286043575862, 0.7329039573728773, 0.48524947901572946, 2309920000000, 
-11.131379891199806, 1.0740544067308428, 0.4812329591547283, 2309925000000, 
-7.681365480544893, 0.7412881702627983, 0.47854453090183047, 2309931000000, 
-9.85275836264611, 0.9959900463458856, 0.4742977738640197, 2309936000000, 
-9.293523388757698, 0.9483866710996147, 0.46988072989439245, 2309941000000, 
-9.594060006867661, 0.992089245208593, 0.467378536335579, 2309946000000, 
-11.790401188088344, 1.2387477341871718, 0.4629031098168204, 2309951000000, 
-7.675813815969899, 0.8432496212360941, 0.46073004517789284, 2309956000000, 
-11.19618990551624, 1.258012264913139, 0.4566983305050093, 2309961000000, 
-7.659002437724479, 0.8761110151875487, 0.4532698926318686, 2309966000000, 
-11.708566070470837, 1.3473287902521829, 0.4496018563907984, 2309971000000, 
-8.949021692988623, 1.0658495766764684, 0.4482076287753938, 2309976000000, 
-9.560775167274816, 1.1755286688496165, 0.442514931374046, 2309981000000, 
-7.648630362605974, 0.921851622985673, 0.4401688768345945, 2309986000000, 
-11.682005930220416, 1.4294271673741832, 0.43586918538889746, 2309991000000, 
-7.644799437840448, 0.9823273235544873, 0.43300854477213546, 2309996000000, 
-11.255439613169953, 1.4514114268527907, 0.4289679126401314, 2310001000000, 
-9.703193732662886, 1.2797924247290744, 0.4251062175900877, 2310006000000, 
-9.553823625749411, 1.2792410163922412, 0.4222895658121381, 2310011000000, 
-7.636931073336675, 1.0346221829435693, 0.4192314000013722, 2310016000000, 
-11.245490201248579, 1.535065260508088, 0.4158720222935167, 2310021000000, 
-7.611378532040099, 1.0315956241384747, 0.4125877666979962, 2310026000000, 
-9.64752141431914, 1.35357916273892, 0.408967029675558, 2310031000000, 
-9.507989658795445, 1.3220092424753767, 0.4060748236036197, 2310036000000, 
-11.288731373854025, 1.5879779356384425, 0.4022027906724091, 2310041000000, 
-9.62929454255968, 1.403668401890325, 0.3983740953241896, 2310046000000, 
-9.509238806380978, 1.3958768717069736, 0.39534443950481196, 2310051000000, 
-7.612009151954157, 1.13594709986257, 0.39279805665176476, 2310056000000, 
-11.239246070630525, 1.6868491624380813, 0.3888802263513695, 2310061000000, 
-9.582027160316123, 1.4448769967057427, 0.38437121291773435, 2310066000000, 
-7.624597283904891, 1.18784025152185, 0.3825385834406089, 2310071000000, 
-11.249929414733847, 1.7695345502845272, 0.37828032618564056, 2310076000000, 
-9.473585392869666, 1.4762662390552028, 0.3759540874653902, 2310081000000, 
-7.601376138824193, 1.175621448920103, 0.3729725683424941, 2310086000000, 
-11.460064082883413, 1.811637109573368, 0.3692332307388254, 2310091000000, 
-7.600676983893023, 1.1991002917493363, 0.36648265215540365, 2310096000000, 
-11.264857403545552, 1.8268754226911361, 0.36300391151187683, 2310101000000, 
-9.55955452762748, 1.556500715315985, 0.3587350869493019, 2310106000000, 
-9.463760840005532, 1.560855363219193, 0.35610600110695684, 2310111000000, 
-9.386829980971592, 1.544809251944765, 0.35203959981149346, 2310116000000, 
-9.452540230568987, 1.596484438084007, 0.349148074070889, 2310121000000, 
-9.486924325977148, 1.6212407804643658, 0.3455995538746351, 2310126000000, 
-9.418780294995184, 1.6279613109486641, 0.3426615467361707, 2310131000000, 
-7.549294037937396, 1.3260324803041559, 0.34047771587380266, 2310136000000, 
-12.534682986429425, 2.2025288038612314, 0.33809149856738907, 2310141000000, 
-8.039934995303163, 1.4377494527549193, 0.3340430322012456, 2310146000000, 
-11.34282511520682, 2.006297626612425, 0.3298119772905343, 2310151000000, 
-7.53980757852577, 1.3633840539014586, 0.3275747236192691, 2310156000000, 
-11.216149087867644, 2.014055630102289, 0.3234452533862249, 2310161000000, 
-7.515429506970399, 1.404884657135108, 0.32125613613176707, 2310166000000, 
-11.316965585249767, 2.0715348846803225, 0.3172255811771375, 2310171000000, 
-7.509643555979499, 1.3810744100117749, 0.3146940194500488, 2310176000000, 
-11.238415080994992, 2.084806253268487, 0.3106879888715535, 2310181000000, 
-7.5375322509858345, 1.4020959181121846, 0.30848978803506405, 2310186000000, 
-11.269406219636497, 2.137671376071051, 0.3046133181776389, 2310191000000, 
-9.355295694704028, 1.7470021725702445, 0.3006833208953039, 2310196000000, 
-9.387314025773607, 1.8067837357007643, 0.29799657576945815, 2310201000000, 
-7.507289798084321, 1.4608153896042662, 0.2956818747321144, 2310206000000, 
-11.26661170400036, 2.156947254211299, 0.2921425080652994, 2310211000000, 
-7.475781296576863, 1.473231064676357, 0.2897828480763278, 2310216000000, 
-11.225536488658474, 2.18262916881659, 0.28528285678305554, 2310221000000, 
-7.523678086580925, 1.4765357799030234, 0.2829578652186804, 2310226000000, 
-9.383611140876441, 1.8550910313216153, 0.27925695299842296, 2310231000000, 
-9.358157521827508, 1.8370797885177248, 0.2766342669958561, 2310236000000, 
-11.184975985789013, 2.2209578200326776, 0.273182118242794, 2310241000000, 
-7.50051007089209, 1.504970554011297, 0.27121297975620956, 2310246000000, 
-9.329768318869974, 1.8848657617159754, 0.26745658926967075, 2310251000000, 
-9.331519578272191, 1.8705039833315342, 0.26468993880602193, 2310256000000, 
-11.142670469395565, 2.23555808607099, 0.2606196536268963, 2310261000000, 
-7.497175696296129, 1.5407818740748909, 0.25815900394535596, 2310266000000, 
-11.169300257074465, 2.2856961580366506, 0.2544364628930864, 2310271000000, 
-7.469866221424166, 1.538790795895848, 0.2518716862000061, 2310276000000, 
-10.642660438157664, 2.1719199294599094, 0.2468635466091324, 2310282000000, 
-9.31582958308785, 1.9375249949422062, 0.2443300037480009, 2310287000000, 
-7.4637303082979125, 1.5364285213537463, 0.2420785209377103, 2310292000000, 
-11.133646243140365, 2.3589149249177823, 0.23798879466130168, 2310297000000, 
-7.420331900641812, 1.57942546251619, 0.2359460784677524, 2310302000000, 
-11.120720605043834, 2.39070632208721, 0.23188979190684078, 2310307000000, 
-7.436007579144165, 1.599555197228826, 0.22964468866672275, 2310312000000, 
-11.12640596964996, 2.360376235787395, 0.22620169823190764, 2310317000000, 
-7.431856154694491, 1.6112364660867524, 0.22346931061397599, 2310322000000, 
-9.282079096157325, 1.9731220703567307, 0.21851566578899678, 2310329000000, 
-11.123662628960602, 2.4027296059782324, 0.2147908019614449, 2310334000000, 
-9.260286187812445, 2.011525060004137, 0.21211773323922262, 2310339000000, 
-9.27483983332917, 1.9971980841482906, 0.210154058519486, 2310344000000, 
-9.255938653062362, 2.028400678943355, 0.20746628248871782, 2310349000000, 
-9.261382345044694, 2.033366316608249, 0.20218703781523295, 2310354000000, 
-9.262938713872106, 2.008734387383101, 0.20025452691258938, 2310359000000, 
-9.26293243389743, 2.0107262128802157, 0.19647688548929385, 2310364000000, 
-9.240610914636127, 2.02648393052998, 0.19413773528388084, 2310369000000, 
-7.395059403907867, 1.6514073076662006, 0.19168889747380577, 2310374000000, 
-11.064710174689084, 2.4305778654898624, 0.18794591254216658, 2310379000000, 
-9.243220980702421, 2.037883191974443, 0.18453892626348026, 2310384000000, 
-9.247301959550962, 2.0634431631042536, 0.18160378360174234, 2310389000000, 
-9.218760373917895, 2.0796154041777446, 0.17817384474400674, 2310394000000, 
-9.210598426485971, 2.0567165481898475, 0.17584464185172394, 2310399000000, 
-9.21823288858991, 2.0614640204722883, 0.1720426650715565, 2310404000000, 
-9.243757713986673, 2.066283916897396, 0.16977929120216242, 2310409000000, 
-9.201336880686661, 2.088919593670226, 0.16621979593914954, 2310414000000, 
-9.173635089947622, 2.0614711848306353, 0.16354532690805285, 2310419000000, 
-9.214270064064522, 2.0314170648217775, 0.15990452843995423, 2310424000000, 
-9.22471319081582, 2.0660194142612864, 0.15764103035199237, 2310429000000, 
-7.369275206010603, 1.680908464102783, 0.15526668072902333, 2310434000000, 
-11.052911536081274, 2.4757078829385377, 0.1518594445803709, 2310439000000, 
-7.386231088320234, 1.6439370271200946, 0.14905343699704365, 2310444000000, 
-11.004412476749843, 2.520058949390403, 0.14560857000200841, 2310449000000, 
-7.376132938916179, 1.6677312756681288, 0.14327205062601697, 2310454000000, 
-11.036720586233251, 2.497630891205366, 0.1397938635273876, 2310459000000, 
-7.366673610440999, 1.6870458228659533, 0.13715729598814738, 2310464000000, 
-10.974213007822856, 2.497272708654436, 0.13323821069097772, 2310469000000, 
-7.3583049838231975, 1.6671802395940274, 0.13130692076675948, 2310474000000, 
-11.014603507648319, 2.4891517052788505, 0.12748991671793453, 2310479000000, 
-7.891717967214307, 1.7835347869891898, 0.12390524379482822, 2310485000000, 
-10.986689646874888, 2.486261544084904, 0.12011516556250076, 2310490000000, 
-9.146245971719864, 2.085753361987175, 0.11828476124873522, 2310495000000, 
-7.345280055311436, 1.6904564779324298, 0.11554706835474508, 2310500000000, 
-10.974368016345473, 2.4781515353196646, 0.1118821868049686, 2310505000000, 
-7.318835460086362, 1.6603089880651194, 0.10944926793108868, 2310510000000, 
-10.979527342813673, 2.477652186327587, 0.1060515627939293, 2310515000000, 
-7.35576180741178, 1.6609664493039666, 0.10377751603925246, 2310520000000, 
-10.951906748176675, 2.4918803025167553, 0.10023398172358099, 2310525000000, 
-9.177086127302221, 2.068196660082186, 0.09637408666007212, 2310530000000, 
-9.134445589879157, 2.092491274262948, 0.09451658866879356, 2310535000000, 
-9.152202842340422, 2.088039877592591, 0.09100958939666011, 2310540000000, 
-9.136903628449701, 2.0677925035344047, 0.08830625134431598, 2310545000000, 
-7.324335265682381, 1.6577134077424298, 0.08568250444819642, 2310550000000, 
-10.936562023155377, 2.494830741326908, 0.08214258914050793, 2310555000000, 
-7.306970524006231, 1.6655837810409826, 0.08007583980961985, 2310560000000, 
-10.946125171742368, 2.4650581602475863, 0.0762317645271159, 2310565000000, 
-7.823891776240311, 1.7925731047215752, 0.07289985661048358, 2310571000000, 
-9.112763083538459, 2.064076820442408, 0.07011408945322362, 2310576000000, 
-10.950082184590473, 2.452422270918094, 0.06707529363332145, 2310581000000, 
-7.338853055626938, 1.6276018906273213, 0.06431455500649126, 2310586000000, 
-10.928788248439824, 2.4637967944541694, 0.06088647718110793, 2310591000000, 
-7.334671408215183, 1.6620091818679408, 0.05883458229086606, 2310596000000, 
-10.900038854833648, 2.4538737910435584, 0.054814092092591714, 2310601000000, 
-9.091605564003107, 2.035211194452016, 0.050940899545905735, 2310606000000, 
-9.103445097050404, 2.0494194199283853, 0.04868299290756149, 2310611000000, 
-7.3026843870871865, 1.625309215689122, 0.04638139910431158, 2310616000000, 
-9.14209134736844, 2.0150097210880493, 0.04287762084341486, 2310621000000, 
-9.081564764931173, 2.0494413219854617, 0.04018741023074945, 2310626000000, 
-9.103779836706249, 2.0388873378407415, 0.036694041240092234, 2310631000000, 
-9.110986106061118, 2.013910893049518, 0.03409380399295195, 2310636000000, 
-9.085712469215796, 2.025649008592162, 0.030698514701913728, 2310641000000, 
-9.09916799150668, 2.0197714266948323, 0.028680300910231434, 2310646000000, 
-10.916313914989631, 2.40856494412079, 0.024780608335971177, 2310651000000, 
-7.303979248158769, 1.6358671096436792, 0.022304555952110082, 2310656000000, 
-10.92258279163428, 2.3871660235430063, 0.0186165577314499, 2310661000000, 
-7.265243661699215, 1.6042833113764583, 0.0164159430089179, 2310666000000, 
-9.075190423292169, 1.9627502890813115, 0.012974141648207168, 2310671000000, 
-10.915033224643079, 2.3454570811680897, 0.009156214293075766, 2310676000000, 
-7.258551317264142, 1.5853631607530556, 0.006971754330192521, 2310681000000, 
-9.083110184480933, 1.9656097099571643, 0.004803025039642122, 2310686000000, 
-9.06886213023646, 1.947651224216274, 0.0008621052267874102, 2310691000000, 
-9.09062623555629, 1.9064791087962996, -0.0013993683427291274, 2310696000000, 
-10.886840945039054, 2.3412491720194337, -0.004786752315212995, 2310701000000, 
-7.271181978122324, 1.580887825834417, -0.007378994868901741, 2310706000000, 
-10.903655742921018, 2.3437931314336073, -0.011000766848656461, 2310711000000, 
-7.291306157749391, 1.5546730694541235, -0.013362769300264213, 2310716000000, 
-10.875426027099772, 2.3018075755332057, -0.01674196165854219, 2310721000000, 
-7.274105801435208, 1.5210543702449715, -0.019393798911107086, 2310726000000, 
-10.903056814886083, 2.2920756624564205, -0.022987835661802767, 2310731000000, 
-9.09186056574613, 1.8782488675584093, -0.02554339271674605, 2310736000000, 
-9.078012189973435, 1.8654596003239654, -0.02902424212460246, 2310741000000, 
-7.289010163544827, 1.5197463465875485, -0.03169730427838337, 2310746000000, 
-10.869746273701649, 2.241675516232684, -0.03527721909780075, 2310751000000, 
-7.26652144668559, 1.4671311805830358, -0.03728731691070351, 2310756000000, 
-10.858661850379612, 2.2416380455763463, -0.041158465643800025, 2310761000000, 
-7.281069930487148, 1.453874481221263, -0.043424587889570064, 2310766000000, 
-9.084304933256638, 1.8278970531645513, -0.04620883925949976, 2310771000000, 
-9.066960735793174, 1.816991142808783, -0.049337427066644526, 2310776000000, 
-10.877535078738417, 2.196198020631699, -0.053106831238251495, 2310781000000, 
-7.24247865862145, 1.4153576050157894, -0.05538753057075415, 2310786000000, 
-9.064349740628728, 1.796195178024137, -0.058265587476932675, 2310791000000, 
-9.034682441375745, 1.7959878597473362, -0.06195709788757371, 2310796000000, 
-10.855525044878464, 2.0841110564736223, -0.06527538189084789, 2310801000000, 
-9.043380225687464, 1.7408182754473032, -0.06867426219146502, 2310806000000, 
-9.043731521593102, 1.7443614837948225, -0.0717698106488134, 2310811000000, 
-7.243052779017108, 1.398716456627893, -0.07390207946816628, 2310816000000, 
-10.88509192460872, 2.074734315801291, -0.07726295758309668, 2310821000000, 
-7.251656272651352, 1.3867502193335595, -0.07984593656606534, 2310826000000, 
-10.889653338644768, 2.048682158469585, -0.0833032820993303, 2310831000000, 
-7.2841972512873605, 1.3214435947515102, -0.08562200291260529, 2310836000000, 
-10.865680162549618, 2.0025766704719175, -0.08931291233064577, 2310841000000, 
-7.253539567826401, 1.3395656478198532, -0.09165685823207254, 2310846000000, 
-10.8754945479066, 1.9705828465111566, -0.09524202462098423, 2310851000000, 
-7.25554062381075, 1.319790949197965, -0.0974760900348972, 2310856000000, 
-10.855333350059542, 1.9836566758010554, -0.10111586426889071, 2310861000000, 
-7.26414140225951, 1.2980824696267874, -0.10415423199325716, 2310866000000, 
-10.843377375862286, 1.9097783110176878, -0.1077527992101635, 2310871000000, 
-9.022053525725571, 1.5637627293156708, -0.11124945722465329, 2310876000000, 
-9.053416574217593, 1.5955746160437498, -0.11364691646836016, 2310881000000, 
-7.242081486287303, 1.2326622064181139, -0.11606689289035242, 2310886000000, 
-9.03814687297934, 1.5482502356479058, -0.12018711596537056, 2310891000000, 
-9.065626690357186, 1.5239807008140902, -0.12252024837995157, 2310896000000, 
-10.331602601108523, 1.7480921664474993, -0.12756020574361338, 2310903000000, 
-7.259480922352502, 1.204337859821215, -0.12954743119743153, 2310908000000, 
-10.83860028567324, 1.764781280163175, -0.13366940425636228, 2310913000000, 
-7.2480436747792805, 1.1805765865790665, -0.1360448285235575, 2310918000000, 
-10.828408350338691, 1.7287760497061904, -0.14002238235113618, 2310923000000, 
-7.240736217380765, 1.1598278118022733, -0.14224674443002566, 2310928000000, 
-10.849815909389886, 1.7218688028740257, -0.14655057541050298, 2310933000000, 
-7.237873695619829, 1.1481284492088608, -0.14890317952032936, 2310938000000, 
-10.821643468155141, 1.7029793784654232, -0.1523901775221747, 2310943000000, 
-7.248436037702008, 1.055225819202437, -0.154908881616372, 2310948000000, 
-10.841459077801911, 1.6319019734945341, -0.15860659289382995, 2310953000000, 
-7.24685440710087, 1.099776906703759, -0.1612035350303397, 2310958000000, 
-10.828015394441955, 1.6126953710041663, -0.16461106418066462, 2310963000000, 
-7.259495599305296, 1.0764808591043242, -0.1671512250034997, 2310968000000, 
-10.817824902940197, 1.5731073240465037, -0.17158210382120428, 2310973000000, 
-7.7758000748156855, 1.1064668612665833, -0.1747006990174817, 2310979000000, 
-9.043654082580714, 1.266005703963003, -0.17736091749899924, 2310984000000, 
-10.836876151096629, 1.5081400307069768, -0.18136807924909, 2310989000000, 
-7.253733197782411, 0.9746370844848652, -0.18386575621420326, 2310994000000, 
-10.854565843176035, 1.4233423258334732, -0.1872285033960715, 2310999000000, 
-7.227273270220207, 0.9711648235409238, -0.18985195877183594, 2311004000000, 
-10.828355413420194, 1.4219038051086468, -0.19397480932471112, 2311009000000, 
-7.260981202958347, 0.9278588519389793, -0.1961653025582235, 2311014000000, 
-10.818085546623413, 1.362806482027005, -0.20022802818715366, 2311019000000, 
-7.2448109976659305, 0.9008399477765481, -0.2025714701176716, 2311024000000, 
-10.846284356660101, 1.3412091958564463, -0.20630194038940391, 2311029000000, 
-7.2338058037144135, 0.877751529929285, -0.20917721941068865, 2311034000000, 
-10.807090209877941, 1.2600986788212547, -0.21301465993736185, 2311039000000, 
-7.267188847493163, 0.8790599574654431, -0.2157501551174903, 2311044000000, 
-10.855939183092007, 1.2139630389355596, -0.21931942540995686, 2311049000000, 
-7.239684810693515, 0.8035453636788986, -0.2220386069850476, 2311054000000, 
-10.812074798687917, 1.1712555542288952, -0.2257347553876535, 2311059000000, 
-7.223482978471901, 0.7815879429491644, -0.2284219269561024, 2311064000000, 
-10.820154049727071, 1.1199059882736728, -0.23247297411434037, 2311069000000, 
-7.24891473785755, 0.752538573547723, -0.2348140472089207, 2311074000000, 
-9.017958135663944, 0.9366794035514048, -0.23884881174923134, 2311079000000, 
-9.022528035460272, 0.9011801481430353, -0.2412463895867026, 2311084000000, 
-9.027709290799814, 0.8369775055222914, -0.245114731307477, 2311089000000, 
-9.029536042754692, 0.8487488006233858, -0.24775606962263633, 2311094000000, 
-9.061408760974752, 0.7989230943196318, -0.25165796692627734, 2311099000000, 
-9.043316489920151, 0.7909012580314128, -0.2541325907218468, 2311104000000, 
-10.810488068363314, 0.9088930654705661, -0.25790254675409485, 2311109000000, 
-9.032543998971473, 0.7632555613487795, -0.2620844914098158, 2311114000000, 
-9.039113736340276, 0.7574254573003154, -0.26471198003563357, 2311119000000, 
-7.254720069204487, 0.5736601279704664, -0.2673226586494182, 2311124000000, 
-10.843660520728848, 0.8149939969519863, -0.27123162029160225, 2311129000000, 
-7.242718208201806, 0.5191582280753774, -0.2736985633766463, 2311134000000, 
-9.065614485979488, 0.6249839258690679, -0.2772166857167349, 2311139000000, 
-9.030283337921851, 0.6459492859170417, -0.28031875071489976, 2311144000000, 
-10.806971480856305, 0.6948278252618606, -0.2843286433479166, 2311149000000, 
-7.275910537164374, 0.4479297597136902, -0.2864488112440206, 2311154000000, 
-10.798794994006055, 0.6661464817585901, -0.2910959739435466, 2311159000000, 
-7.2373517066945, 0.4208847646048796, -0.2935202101700001, 2311164000000, 
-9.025767151274078, 0.4986696492369391, -0.29762433007461203, 2311169000000, 
-9.019825573220771, 0.4842897184835153, -0.2998635262815394, 2311174000000, 
-10.81619265064079, 0.5363544806478192, -0.30392917170252925, 2311179000000, 
-7.178059942388732, 0.3850345716573498, -0.30705262743896167, 2311184000000, 
-10.318749445009036, 0.4669691484458508, -0.31226941450510715, 2311191000000, 
-7.236212609485055, 0.28924655253899095, -0.3148903995510549, 2311196000000, 
-10.780951558910488, 0.4476948402982523, -0.3191903910583669, 2311201000000, 
-7.235006119725683, 0.23824436662609663, -0.32210482496078424, 2311206000000, 
-10.848181154299802, 0.37815454474836346, -0.3260101306287191, 2311211000000, 
-7.255074098988032, 0.24430569498833876, -0.3287302858885939, 2311216000000, 
-10.79583974226282, 0.2880359057615264, -0.3326408545913248, 2311221000000, 
-7.224971973390201, 0.17775184429961208, -0.335322072836836, 2311226000000, 
-10.795406144287059, 0.2429550929554749, -0.3395021914656536, 2311231000000, 
-7.237752570494498, 0.1516092848214847, -0.342482016224983, 2311236000000, 
-10.823294113768004, 0.1868008191981989, -0.34667807974069914, 2311241000000, 
-7.709640200843168, 0.0874206916487875, -0.3505932441834306, 2311247000000, 
-8.99980441269949, 0.10844459584244313, -0.35342773419363316, 2311252000000, 
-10.823139203750754, 0.10096576506322258, -0.35757505698620834, 2311257000000, 
-7.22874974993302, 0.03547664190515285, -0.360504737443359, 2311262000000, 
-10.273530686039134, -0.020438195131661722, -0.3659202460289562, 2311268000000, 
-20.669776699179017, -0.11354523287552837, -0.3623513313911784, 2311273000000, 
-9.184350348448483, -0.021784193673890027, -0.35844407943014606, 2311278000000, 
-7.226827522598099, -0.08250572816469881, -0.35567606773120686, 2311283000000, 
-10.233451033450985, -0.12310045113152446, -0.35073387964481056, 2311288000000, 
-8.969252498860023, -0.12306317771549309, -0.3477232287257994, 2311293000000, 
-9.486620930517768, -0.14443333919583198, -0.34410316997274537, 2311298000000, 
-7.228801301653952, -0.13237266401853404, -0.340427427988788, 2311303000000, 
-12.003141942694276, -0.28876848640393554, -0.3358698009095189, 2311308000000, 
-7.20065943485518, -0.18297913261647522, -0.33341598755913526, 2311313000000, 
-9.64594224131537, -0.2730781988696741, -0.3295249019622674, 2311318000000, 
-7.2469300592198875, -0.21620768247787045, -0.32677085593700955, 2311323000000, 
-11.838287993386635, -0.4233099761211972, -0.321797917259199, 2311328000000, 
-7.205289688216335, -0.24588370005800975, -0.3191948306367937, 2311333000000, 
-9.843225119971445, -0.37877403877665994, -0.31496750643974875, 2311338000000, 
-7.235712739658334, -0.3361509151133135, -0.31239979315221283, 2311343000000, 
-11.6804917414062, -0.5074859496550607, -0.3075584354207932, 2311348000000, 
-7.182931339828864, -0.37765700252185597, -0.30493445813714376, 2311353000000, 
-8.313746529861337, -0.41309786121070613, -0.3012058898769559, 2311359000000, 
-11.552918888100022, -0.6169893301711887, -0.29654898796708795, 2311364000000, 
-7.221327697436035, -0.3780883606571365, -0.2939003692560396, 2311369000000, 
-10.021969798233318, -0.535578720857883, -0.29016121363297204, 2311374000000, 
-8.974044592476695, -0.5600807084046782, -0.2841628415642095, 2311381000000, 
-7.078572246302422, -0.4955417333810602, -0.28269723742918146, 2311386000000, 
-8.464927071720346, -0.5569177797933976, -0.27863800932429905, 2311391000000, 
-11.354542697842673, -0.7902364646343759, -0.274682807573082, 2311396000000, 
-5.0391642044733445, -0.3536442939167981, -0.2729935924978811, 2311401000000, 
-10.261277830774182, -0.7671510979248511, -0.2677250898818871, 2311406000000, 
-7.217913463659504, -0.605623929547537, -0.2648909914255497, 2311411000000, 
-11.231142608495944, -0.9002775203423451, -0.26051327881951813, 2311416000000, 
-7.178877448340097, -0.6231994730263742, -0.25777024980624447, 2311421000000, 
-10.291548378414793, -0.8892579088133685, -0.25385299002780565, 2311426000000, 
-7.1784254593800485, -0.5974204013397061, -0.2516955400912709, 2311431000000, 
-11.18176318978545, -1.0075776072667662, -0.2467543628665129, 2311436000000, 
-7.184172976995341, -0.6794715970154523, -0.2443065399108069, 2311442000000, 
-8.62110359914394, -0.8095970646683414, -0.24002104686368625, 2311447000000, 
-11.141264578749723, -1.067764696547452, -0.2358877362616069, 2311452000000, 
-7.163812651371593, -0.7176214612883429, -0.23344520401448457, 2311457000000, 
-10.228492988546414, -1.0458791096704425, -0.22777887571748046, 2311463000000, 
-8.941788289006228, -0.941437495455392, -0.22504603060423106, 2311468000000, 
-7.170934022203481, -0.7682348227861102, -0.2221281366828794, 2311473000000, 
-10.399204870912284, -1.1417739562142608, -0.21819167269737744, 2311478000000, 
-7.186798974805922, -0.785846395783579, -0.2159816149699361, 2311483000000, 
-11.00450909518318, -1.2439400659174158, -0.21163865675661653, 2311488000000, 
-7.165456352474705, -0.8314266398569136, -0.20906058797298144, 2311493000000, 
-10.483301803355126, -1.230427910780771, -0.20535135425130271, 2311498000000, 
-7.171090920559766, -0.8546430347699782, -0.20272976282257052, 2311503000000, 
-10.958037549678886, -1.3785919115621668, -0.19849591665823027, 2311508000000, 
-7.16502789984936, -0.8912931140953696, -0.19592531867354576, 2311513000000, 
-8.74716415300831, -1.1018559918919482, -0.19186923501407188, 2311518000000, 
-10.907257928885777, -1.3816000454821162, -0.18800394025158346, 2311523000000, 
-8.949892582746386, -1.1860762308702468, -0.18526010031484896, 2311528000000, 
-7.140121523567036, -0.9633121028937606, -0.18270113586698825, 2311533000000, 
-8.937534475484416, -1.2039414243430018, -0.18065622225530467, 2311538000000, 
-10.210939736290952, -1.4065636597919406, -0.17510002018678567, 2311543000000, 
-8.914021206242918, -1.2388867867654982, -0.17253487317214608, 2311548000000, 
-7.136442908216399, -0.9937964920846827, -0.17029617145604675, 2311553000000, 
-10.484426840969324, -1.4824135227798443, -0.16598798920549435, 2311558000000, 
-7.156286134400856, -1.0166292501532281, -0.16342014646790887, 2311563000000, 
-10.846343101426077, -1.5734886299540252, -0.15980875461496452, 2311568000000, 
-7.129698629057507, -1.041926144722642, -0.15718454129560167, 2311573000000, 
-8.798455540330577, -1.3138748636226478, -0.15300528891536203, 2311578000000, 
-8.904817875208046, -1.352329162068114, -0.150711629455793, 2311583000000, 
-10.814152436872503, -1.6935580482029124, -0.14705188234160751, 2311588000000, 
-8.809141185521648, -1.3599949662199062, -0.1424915568119122, 2311593000000, 
-8.918312123976596, -1.3932119496581667, -0.14006310937647115, 2311598000000, 
-7.119851351299109, -1.1772138674254644, -0.1377574545915673, 2311603000000, 
-10.774031358145635, -1.7156083889379596, -0.1339271550036543, 2311608000000, 
-7.1198258767716815, -1.1887635179037968, -0.13133247973604217, 2311613000000, 
-10.587889580626088, -1.7249435036312484, -0.12770145932218357, 2311618000000, 
-8.977344572492676, -1.5153343363018208, -0.12358951702671601, 2311623000000, 
-8.887089449095896, -1.4738900015729808, -0.12096561908365659, 2311628000000, 
-7.137055940137279, -1.2556288798785995, -0.11811903669968504, 2311633000000, 
-10.596390611957528, -1.7972780769119294, -0.11475767161556097, 2311638000000, 
-8.986431694211161, -1.559977881731568, -0.11084732820976148, 2311643000000, 
-7.123255009773157, -1.2437322230630332, -0.10853050883161412, 2311648000000, 
-8.91388935209355, -1.5610797080585557, -0.10625380606509122, 2311653000000, 
-10.596047309268144, -1.8989784044653644, -0.10173255121170934, 2311658000000, 
-7.700281250264688, -1.372109467119351, -0.09789865420755546, 2311665000000, 
-8.846941457332303, -1.6218148291539485, -0.0948910993640445, 2311670000000, 
-8.903734635270144, -1.6201326287518993, -0.09159467583660211, 2311675000000, 
-10.70360324491675, -1.9530545430917454, -0.08851691104835885, 2311680000000, 
-7.160262083197338, -1.3132344767828237, -0.08571613929877, 2311685000000, 
-10.573678668597594, -1.9815508568575886, -0.08214271151669245, 2311690000000, 
-7.114494844508242, -1.3395246540924577, -0.07970465259034774, 2311695000000, 
-10.704996621686593, -2.0074963562757224, -0.07576136592319056, 2311700000000, 
-7.121276423384233, -1.4060521952217155, -0.07345183270706654, 2311705000000, 
-10.58124299882078, -2.0468882416227454, -0.0699068819358832, 2311710000000, 
-7.121928972608608, -1.3461941987935513, -0.06703686044077137, 2311715000000, 
-10.662275204004613, -2.08973973793507, -0.06354076145353739, 2311720000000, 
-7.0968852832547284, -1.3864936215851926, -0.060791998414556465, 2311725000000, 
-10.595583230080955, -2.1019230222337337, -0.05723893409040203, 2311730000000, 
-7.107871457623759, -1.42366834253045, -0.0544214295767486, 2311735000000, 
-8.909530410323738, -1.784820599278974, -0.051029438444923095, 2311741000000, 
-10.596401472671891, -2.163845010125128, -0.04689726416071557, 2311746000000, 
-8.873295347307108, -1.802588623478958, -0.044661804664113604, 2311751000000, 
-8.855580834270953, -1.8351853051457203, -0.04074436478134506, 2311756000000, 
-8.806165529587606, -1.7964734604984538, -0.03736509275163065, 2311761000000, 
-7.11004415610596, -1.4355329540719293, -0.03472381274173891, 2311766000000, 
-8.862336230890193, -1.8119189812137337, -0.03238302893685565, 2311771000000, 
-10.668700601227533, -2.2242872908657647, -0.028507426106442822, 2311776000000, 
-7.095588039503817, -1.4968527398813063, -0.02598264262628218, 2311781000000, 
-10.607315432411527, -2.2414704805815724, -0.022008503838697152, 2311786000000, 
-7.07501746561093, -1.4849726752325751, -0.019446792677780336, 2311791000000, 
-10.670812716058494, -2.262898332280409, -0.016175225890166012, 2311796000000, 
-7.08688438629193, -1.5009796665064183, -0.013914050694245977, 2311801000000, 
-8.79194080900571, -1.930386923573663, -0.012629120802060013, 2311806000000, 
-8.879249629406056, -1.8898582175435974, -0.007907149202155937, 2311811000000, 
-10.631777906351566, -2.2978134833848953, -0.0038637227432277194, 2311816000000, 
-7.109913039509293, -1.5506221441549315, -0.001561526828335451, 2311821000000, 
-10.591962058045304, -2.328106566121629, 0.0019700065598470726, 2311826000000, 
-7.085013009368125, -1.572758831788107, 0.004349812948773984, 2311831000000, 
-10.610677425945733, -2.3101397756559137, 0.007662661122487111, 2311836000000, 
-7.113073969344404, -1.5741825341916904, 0.01023043834307512, 2311841000000, 
-8.833136064398575, -1.9691946440496462, 0.01396915347241391, 2311846000000, 
-8.833935275995653, -1.9669451673013472, 0.016036798645263365, 2311851000000, 
-10.632018587983154, -2.3511503176151805, 0.019790762643674374, 2311856000000, 
-8.843805901580927, -2.030974688952903, 0.023198730905464746, 2311862000000, 
-7.072130562358939, -1.5939843311904365, 0.02620849693873806, 2311867000000, 
-8.862945157719535, -2.0023010395558445, 0.02847246266402575, 2311872000000, 
-8.866700455484212, -2.006023101033976, 0.0319228705560455, 2311877000000, 
-11.811692237752414, -2.679074408739013, 0.03409619572608301, 2311882000000, 
-7.862225831815918, -1.8104387304237568, 0.03911873445740533, 2311888000000, 
-8.855813531370261, -2.0513734473920273, 0.041503650038839705, 2311893000000, 
-10.599005695231037, -2.4550996712515767, 0.04517275558222255, 2311898000000, 
-8.872595192435305, -2.0465243780037348, 0.04878255022495208, 2311903000000, 
-5.920554736289988, -1.3510187074609084, 0.0503068598139684, 2311908000000, 
-10.603277898769969, -2.4578045774092816, 0.05364571050621611, 2311913000000, 
-8.819585306028735, -2.0636173301519922, 0.05729733818609999, 2311918000000, 
-7.110311026798582, -1.6751896413240226, 0.059548945173323126, 2311923000000, 
-10.609159255719158, -2.483733558897491, 0.06312789202342867, 2311928000000, 
-8.843874368471258, -2.0814458436448096, 0.06693984600596808, 2311933000000, 
-8.844586884290166, -2.0724192379613475, 0.06892411662077741, 2311938000000, 
-7.073127349248522, -1.6678128037994486, 0.07164921655655702, 2311943000000, 
-8.855238581229806, -2.0895555399405104, 0.07497945991382796, 2311949000000, 
-10.59609330827459, -2.511218073082595, 0.07873250743335929, 2311954000000, 
-7.092551449327258, -1.6864350589790156, 0.08119412708989833, 2311959000000, 
-10.64141492662531, -2.5123453530230724, 0.08512090489394107, 2311964000000, 
-7.086668082308376, -1.7210401211448745, 0.08706221176949212, 2311969000000, 
-10.62747368669508, -2.530779423009559, 0.0913129027417913, 2311974000000, 
-7.131654180149847, -1.6918594753122909, 0.09309894536101103, 2311979000000, 
-10.627301982210147, -2.5371901897345444, 0.09684161984974224, 2311984000000, 
-7.112741035688252, -1.690308954402832, 0.09906999941831487, 2311989000000, 
-10.618302389999156, -2.5150580259314923, 0.10247212759365269, 2311994000000, 
-8.884721137359113, -2.142329430124375, 0.1083266661519868, 2312003000000, 
-8.827030354501241, -2.1348770336450453, 0.1112223317275778, 2312008000000, 
-7.089695808011121, -1.709444177283935, 0.11333563044122588, 2312014000000, 
-8.84198039036943, -2.119129388191418, 0.11715765365014313, 2312019000000, 
-10.621598191220867, -2.5130713728903045, 0.1208261784138236, 2312024000000, 
-7.883633669852732, -1.8903122712395228, 0.12545029160851254, 2312032000000, 
-10.597900413192507, -2.5621108119773695, 0.12890192540093753, 2312037000000, 
-8.878150259191557, -2.134640409352711, 0.1313687781108314, 2312042000000, 
-7.108781091008515, -1.697210905705117, 0.13401905573071918, 2312047000000, 
-10.622739301234105, -2.566130660429013, 0.13759801873343422, 2312052000000, 
-7.099268772225136, -1.7148043459313067, 0.13942376547603222, 2312057000000, 
-8.880881091569748, -2.130455472884213, 0.14323878141048607, 2312063000000, 
-10.619999300498991, -2.549183361673516, 0.14663666308632747, 2312068000000, 
-7.875189265560133, -1.900813557852439, 0.15165229931067453, 2312076000000, 
-8.91018820306673, -2.1448453203779154, 0.1556078065714459, 2312082000000, 
-8.861808665742448, -2.1495891414920307, 0.15871303415172722, 2312089000000, 
-10.158004699455697, -2.4489162532163005, 0.16361494076426833, 2312095000000, 
-8.888820460437588, -2.1375933374396427, 0.16626245489894476, 2312101000000, 
-8.885019651976084, -2.1386942985243427, 0.1700165268787403, 2312106000000, 
-7.088321881313692, -1.7263859399907104, 0.1719353844979517, 2312111000000, 
-10.652268702361198, -2.5587599959168323, 0.17544044662506195, 2312116000000, 
-8.881485569891591, -2.1671798112437, 0.17796013917268363, 2312121000000, 
-8.884912711987415, -2.142887216043849, 0.18162292134312047, 2312126000000, 
-8.884397148359238, -2.127061483398036, 0.18489070439434802, 2312131000000, 
-7.12714834539773, -1.712589332151105, 0.18718356448246662, 2312136000000, 
-8.88695426208815, -2.121633540498797, 0.19009821337709515, 2312141000000, 
-10.132289096860667, -2.409324538665183, 0.19537952837590955, 2312147000000, 
-8.911586569493982, -2.1099820624836583, 0.1971898845146768, 2312152000000, 
-8.900887618687092, -2.1159712161566255, 0.20114656436480025, 2312157000000, 
-8.88259570336596, -2.100699021804408, 0.20341118848529802, 2312162000000, 
-7.153144361565202, -1.678678326416669, 0.20524283043424157, 2312167000000, 
-8.919707989988959, -2.0778101126448227, 0.20917390521753737, 2312173000000, 
-10.673149153894208, -2.526203055740672, 0.21252341481817166, 2312178000000, 
-7.645328893593576, -1.7857434336181714, 0.21655042537030933, 2312184000000, 
-8.905153699546627, -2.0969056778544988, 0.21867798632095162, 2312189000000, 
-8.889542837315446, -2.0977316142994393, 0.22110275010765687, 2312194000000, 
-8.9304538942395, -2.0806237628230493, 0.2245455033355936, 2312199000000, 
-10.719366132388288, -2.4930361210380165, 0.22840650470745485, 2312204000000, 
-8.957362142517075, -2.0869253780220327, 0.23230854159619704, 2312209000000, 
-8.91326223298164, -2.07377221000212, 0.23446098279863564, 2312214000000, 
-7.162231471642061, -1.635312699379289, 0.23666402761228755, 2312219000000, 
-10.677961112111397, -2.455878093032246, 0.24025895965699104, 2312224000000, 
-7.174468474977202, -1.6381868230346872, 0.24278013245671237, 2312229000000, 
-8.957612974919229, -2.0296179914716874, 0.24527456328202385, 2312234000000, 
-8.913346315251543, -2.0502641272648665, 0.248801951830945, 2312239000000, 
-10.690320167847252, -2.455669994496658, 0.2520627646961673, 2312244000000, 
-8.936569407710193, -1.988233520624401, 0.2547074346868132, 2312249000000, 
-8.961492809293715, -2.026576550788815, 0.2581108361823783, 2312254000000, 
-7.1784025787208305, -1.5948988132164001, 0.2609503913193284, 2312259000000, 
-8.958300160905884, -2.017565371955976, 0.26450324965768907, 2312264000000, 
-8.965151438625647, -2.0442197122077865, 0.2669002043379206, 2312269000000, 
-10.759473714213504, -2.4060466163171155, 0.2704951625340047, 2312274000000, 
-7.192929764993815, -1.6248528542700547, 0.2731876700260804, 2312279000000, 
-8.96874871867426, -1.994372803995287, 0.2767584791518142, 2312284000000, 
-8.981225086041308, -2.001539255111542, 0.2793313252348669, 2312289000000, 
-10.800309538351105, -2.377075719548042, 0.2828807106919961, 2312294000000, 
-7.173958805713855, -1.5804530978430473, 0.28539495015822336, 2312299000000, 
-10.765270707879367, -2.36651672961121, 0.2889092393187507, 2312304000000, 
-6.0183741391856165, -1.3056665129764633, 0.2900797822329509, 2312309000000, 
-8.957773840536895, -1.943134931412307, 0.29528348755148776, 2312314000000, 
-8.946692030832331, -1.9475843805003292, 0.29761222890925254, 2312319000000, 
-8.998875243102828, -1.9241500760567054, 0.30139641200366096, 2312324000000, 
-10.773770048835676, -2.315033658445475, 0.3049810850350271, 2312329000000, 
-7.202429839219809, -1.5399202399437641, 0.30752508779965915, 2312335000000, 
-10.786931213303252, -2.282790928789534, 0.3111233610483046, 2312340000000, 
-7.222810155526956, -1.5129752297593368, 0.31368986895055045, 2312345000000, 
-8.992864484632015, -1.9018157688315083, 0.31745102119550983, 2312351000000, 
-10.803102772079818, -2.2467283252576227, 0.3207322455366591, 2312356000000, 
-7.2195449465439685, -1.499202301803922, 0.3238826458530223, 2312361000000, 
-10.26813364994133, -2.1283676625406445, 0.32840888447532235, 2312367000000, 
-7.7350222814212595, -1.5679793677109983, 0.3318229964319446, 2312374000000, 
-9.044642823470513, -1.828807516641303, 0.3343277521813906, 2312379000000, 
-9.004940587057144, -1.84596726421142, 0.3384178628431523, 2312384000000, 
-8.995589015101356, -1.8154058443123446, 0.3407781882119204, 2312389000000, 
-10.805657446197284, -2.1655059165256065, 0.344638607665856, 2312394000000, 
-9.04094255341886, -1.7972694102328683, 0.34831379748253133, 2312399000000, 
-9.050185913501256, -1.7913944020506365, 0.35062488673037867, 2312404000000, 
-7.21169418512378, -1.4401403821418166, 0.353400359262757, 2312409000000, 
-10.816926552687955, -2.1093601747758735, 0.357070194563331, 2312414000000, 
-7.246669090813512, -1.3901954355154045, 0.3595253168125173, 2312419000000, 
-10.815785902342903, -2.0659171607291014, 0.3633474837618332, 2312424000000, 
-7.241598842109094, -1.3869130183109466, 0.3660941473187651, 2312429000000, 
-10.842613633455532, -2.038756704944705, 0.36972859942878994, 2312434000000, 
-7.291747505688959, -1.3704064393857143, 0.37224954538447247, 2312439000000, 
-10.835458698637888, -2.009370155862766, 0.3762241059926295, 2312444000000, 
-9.094181852226576, -1.6686736367949992, 0.37729407780206003, 2312449000000, 
-8.048721742016907, -1.4778672604073488, 0.38251868509915865, 2312454000000, 
-9.060940138464748, -1.6543167775171213, 0.3854154100332808, 2312459000000, 
-10.871447397335135, -1.9528061497103648, 0.3890717056547001, 2312464000000, 
-7.293660388884865, -1.2849107821602994, 0.3916390275326484, 2312469000000, 
-10.884842171261335, -1.9665605260398544, 0.39506640554598943, 2312474000000, 
-7.296251872718129, -1.2697020597421111, 0.3978076576296947, 2312479000000, 
-9.065567940138305, -1.5777134378360644, 0.40142901694828864, 2312484000000, 
-9.053249774659955, -1.5552341854114597, 0.4055767108345181, 2312490000000, 
-9.06895378586376, -1.5535662257638532, 0.4077534200581741, 2312495000000, 
-10.922481283242508, -1.8260629561651651, 0.41189440952686796, 2312500000000, 
-7.291949885409557, -1.2374202851892355, 0.41424511507761114, 2312505000000, 
-10.913625835948583, -1.7983243895593966, 0.41872186915394377, 2312510000000, 
-9.076321255274253, -1.4969132156843574, 0.42224930535931343, 2312516000000, 
-9.127755749637236, -1.5066075684995326, 0.42482304909430973, 2312521000000, 
-9.130221764449821, -1.519071992085647, 0.42885428772991013, 2312526000000, 
-7.306593127468748, -1.1598328132594027, 0.4309525627226304, 2312531000000, 
-10.915254387244016, -1.6961808831097507, 0.43523551596077514, 2312536000000, 
-7.299099634517785, -1.1435906506071294, 0.43740825096462704, 2312541000000, 
-10.936953706054407, -1.6910182733656314, 0.441513295139548, 2312546000000, 
-7.296144994872968, -1.1182110962718879, 0.4440654915124264, 2312551000000, 
-10.958011535194721, -1.652132522624314, 0.4479812749223201, 2312556000000, 
-7.33354129248696, -1.0918651420805072, 0.45088099330724124, 2312561000000, 
-10.949951492007036, -1.6106283336280494, 0.4542151251573159, 2312566000000, 
-7.3185367695735355, -1.0864720497757374, 0.45754451891335757, 2312571000000, 
-10.94273647126021, -1.587838249241475, 0.46094153724601394, 2312576000000, 
-7.317604589644886, -1.025238884741366, 0.46409436577226665, 2312581000000, 
-10.950491159576856, -1.547649973336945, 0.46771906712976624, 2312586000000, 
-7.331045959713277, -1.0345066195296926, 0.4704696487795144, 2312591000000, 
-10.988592521479333, -1.4910817298141748, 0.4744827224835537, 2312596000000, 
-7.329442510277405, -1.0052376214651033, 0.477801143688154, 2312601000000, 
-10.99251411751508, -1.4371543210392856, 0.48076651819855787, 2312606000000, 
-7.861388322407286, -0.9778288280738113, 0.48530514398883673, 2312612000000, 
-10.993668375105125, -1.3761228958638245, 0.48899487014527343, 2312617000000, 
-9.170541616272983, -1.1437186049771348, 0.4923350996494724, 2312622000000, 
-9.173422762612509, -1.1358792029865419, 0.4955936807768489, 2312627000000, 
-9.171685832035235, -1.071652192595978, 0.49892865725529884, 2312632000000, 
-7.34769799541269, -0.8846853066187077, 0.5015071854062424, 2312637000000, 
-11.018316529961373, -1.2757864614272798, 0.5054693439696023, 2312642000000, 
-7.368023411591871, -0.8264743744358568, 0.5079991659434762, 2312647000000, 
-11.023667490582154, -1.21843445141551, 0.5119610724539401, 2312652000000, 
-7.348547992176853, -0.8276532646347338, 0.5147150843665559, 2312657000000, 
-9.193010400977279, -1.0221733626405036, 0.5186512035920413, 2312662000000, 
-11.032559202660016, -1.1550986846694493, 0.5230434243531329, 2312668000000, 
-7.384212644756432, -0.7770271690091892, 0.5258758336948136, 2312673000000, 
-11.064474857557466, -1.1026244970906278, 0.5295619548441415, 2312678000000, 
-7.384667462303945, -0.7374515459451211, 0.532405626444271, 2312683000000, 
-11.046765248259584, -1.058231122006682, 0.5365148178897389, 2312688000000, 
-7.425480777511627, -0.7258523939872205, 0.5392676530294577, 2312693000000, 
-9.215716970988808, -0.8033985161972599, 0.5434823689218113, 2312698000000, 
-11.064658614084621, -1.0028874500559541, 0.5475911953390021, 2312703000000, 
-7.394435093746013, -0.658745645848322, 0.5506775962327685, 2312708000000, 
-9.219562223777066, -0.7839273923572939, 0.5530262573958538, 2312713000000, 
-11.041993805503001, -0.8887614127988173, 0.5572945796242164, 2312718000000, 
-7.412227025221312, -0.5786514130504375, 0.560162805003423, 2312723000000, 
-9.287571774477131, -0.6743618964976421, 0.5643375130588104, 2312728000000, 
-9.202088550772423, -0.7073697663509817, 0.567171372999225, 2312733000000, 
-9.227350686546322, -0.6439533142977052, 0.5712210190831156, 2312738000000, 
-9.232905616289846, -0.649148182176622, 0.5741232659743052, 2312743000000, 
-11.073953121962528, -0.7219741945804066, 0.5788864550531737, 2312748000000, 
-7.413063790620768, -0.4681464897191364, 0.581303060332338, 2312753000000, 
-10.585192237506176, -0.6229958092557426, 0.5867177154454959, 2312759000000, 
-9.268168012061839, -0.5419702625454185, 0.589672525116762, 2312764000000, 
-7.427947640081023, -0.40202682812896345, 0.5923906517995423, 2312769000000, 
-10.570130388468035, -0.5689706921661553, 0.598307222867799, 2312775000000, 
-7.413430018247638, -0.34938745050987824, 0.6014156386919458, 2312780000000, 
-9.276795924714216, -0.4005883725512894, 0.6039356353758168, 2312785000000, 
-11.105968652437214, -0.48409753217469914, 0.60843941209155, 2312790000000, 
-7.399516315618358, -0.32521207321215734, 0.6111764061482301, 2312795000000, 
-11.116634764246353, -0.43366365563566794, 0.6155828953957665, 2312800000000, 
-7.440483285319398, -0.269688794802111, 0.6187040410397826, 2312805000000, 
-9.285493684735144, -0.3088440784146314, 0.6224573101330654, 2312810000000, 
-9.295717414683226, -0.2768113959100377, 0.6285536838867243, 2312818000000, 
-9.264301267762253, -0.24346008170682856, 0.6314623805177897, 2312823000000, 
-11.107862445770463, -0.27709952152980627, 0.6358337081504319, 2312828000000, 
-7.425726831636657, -0.14070617954263503, 0.6387400276219856, 2312833000000, 
-11.103895362174686, -0.18743757199451683, 0.6427268849685861, 2312838000000, 
-9.250772525232797, -0.15444830516418054, 0.6469888541911755, 2312843000000, 
-9.256522238433867, -0.10609678227892971, 0.6501945068169979, 2312848000000, 
-7.407688766174264, -0.08878624221599017, 0.653102527025202, 2312853000000, 
-11.10957183953542, -0.04499686990870992, 0.6573590528455412, 2312858000000, 
-7.451289520935961, -0.007266424858722337, 0.660425591956164, 2312863000000, 
-11.114076051229326, -0.017473543029963665, 0.6647551814258964, 2312868000000, 
-25.1790058499329, 0.13545707029533222, 0.6548625733007344, 2312873000000, 
-12.664785618229258, 0.09210184692136222, 0.6498806673553067, 2312878000000, 
-7.407941726265696, 0.06618394314665403, 0.6467918223840894, 2312883000000, 
-8.084495249264705, 0.1046785321278053, 0.6429608400272041, 2312888000000, 
-9.300216534041558, 0.12285109773313205, 0.6402259368405455, 2312893000000, 
-10.38887146317332, 0.16186521354827282, 0.6355562184123628, 2312898000000, 
-9.299741223572836, 0.1862882337539703, 0.6327755252177149, 2312903000000, 
-9.90705270736754, 0.2593337414748459, 0.6291117083134087, 2312908000000, 
-10.234912254913011, 0.24940089680236138, 0.6243921933565396, 2312913000000, 
-7.461987417198838, 0.19700268472437815, 0.6209168751009498, 2312918000000, 
-9.277881876920762, 0.30023557390270866, 0.6181217605956876, 2312923000000, 
-10.134183275377577, 0.3347226648029767, 0.6145053570447109, 2312928000000, 
-7.473272973131468, 0.26501768717077906, 0.6116281470420813, 2312933000000, 
-12.088839920383009, 0.45540563751090357, 0.6070719098778025, 2312938000000, 
-8.549500040205864, 0.36171470337068373, 0.6032718934510203, 2312943000000, 
-9.310384273091948, 0.43957339425711317, 0.6003282340903097, 2312948000000, 
-9.996264601422785, 0.47537314695313837, 0.5960162294994892, 2312954000000, 
-7.438293065831805, 0.356863783470643, 0.5930308659623922, 2312959000000, 
-10.402988437416612, 0.5589537308497858, 0.5888191338250762, 2312964000000, 
-7.473043403880241, 0.4329900702463274, 0.586384269847243, 2312969000000, 
-9.914578020940137, 0.5883857298038556, 0.5817686979362241, 2312974000000, 
-10.472778852066652, 0.6191145643238752, 0.577928787428377, 2312979000000, 
-9.319190004316528, 0.5688479616827505, 0.5751104122594198, 2312984000000, 
-8.413651660951016, 0.5371565442470465, 0.5706198791353652, 2312990000000, 
-9.281666368033834, 0.6390332129278044, 0.5677833001738317, 2312995000000, 
-10.570655644701665, 0.7592775995339601, 0.5638508751132609, 2313000000000, 
-8.352541997763792, 0.6505386554641356, 0.5599146107003296, 2313006000000, 
-9.304610506912665, 0.7096150237915964, 0.5567194386558465, 2313011000000, 
-8.876125478036782, 0.7012891207463179, 0.5529163382735552, 2313016000000, 
-9.322919756862866, 0.7317415039852339, 0.5501919070662113, 2313021000000, 
-9.681883208520102, 0.8397836037796326, 0.5457946243048637, 2313026000000, 
-9.27541166669798, 0.7987172783458498, 0.5429989327672949, 2313031000000, 
-8.946486581777142, 0.8279585644341075, 0.5392400068184476, 2313036000000, 
-9.300737036932219, 0.8676294560959288, 0.5360989731993404, 2313041000000, 
-11.513380437257782, 1.0993160200046577, 0.5322876828816606, 2313046000000, 
-7.442061490385945, 0.7457198117247936, 0.5298454886066727, 2313051000000, 
-10.749586136086767, 1.069735733509342, 0.5258185068243563, 2313056000000, 
-9.553860853030267, 0.9566219868189579, 0.5214310136014775, 2313061000000, 
-9.2814564722411, 0.9759261520565351, 0.5191767811565949, 2313066000000, 
-7.45818482311619, 0.7696715085301002, 0.5159362810404582, 2313071000000, 
-10.804566433469418, 1.1938667691664278, 0.5125708940952608, 2313076000000, 
-9.527050636134806, 1.0550215340908904, 0.5083198084722229, 2313081000000, 
-9.282996349715171, 1.0408000326438709, 0.5053001884905013, 2313086000000, 
-9.281244238028888, 1.0683715970426773, 0.5033067890827138, 2313091000000, 
-7.418743628071734, 0.8612127265797872, 0.5001473490519882, 2313096000000, 
-9.08339584839824, 1.0733206415835779, 0.49646063578016975, 2313101000000, 
-9.896245929275565, 1.1791744262026422, 0.49518595404622295, 2313106000000, 
-9.071491342056722, 1.084067461865119, 0.4910483612360257, 2313111000000, 
-10.59504651610679, 1.3311357186238963, 0.48570780545246467, 2313117000000, 
-8.109392315671172, 0.9980477499356422, 0.48179600146226176, 2313122000000, 
-12.344304129283474, 1.5650924121189553, 0.47873728795825204, 2313127000000, 
-9.095207511007601, 1.2185081839767946, 0.47547820374080274, 2313132000000, 
-9.404633296224556, 1.2585147026804924, 0.4709952070427482, 2313137000000, 
-9.311871136898013, 1.2784388564140108, 0.46859827194483644, 2313142000000, 
-7.435156603540259, 0.9926406429073944, 0.4655625910232439, 2313147000000, 
-10.944236886613524, 1.559282228752196, 0.4617023576453032, 2313152000000, 
-7.430474658243214, 1.0713953195166883, 0.45921245966293234, 2313157000000, 
-11.259826397068236, 1.6043395043783621, 0.4552782862944303, 2313162000000, 
-7.422503187467287, 1.0810691825918932, 0.4522817223275826, 2313167000000, 
-9.130175842014864, 1.3581491278243822, 0.44869489362887344, 2313172000000, 
-11.20856012410691, 1.6770092804217607, 0.4450973460519967, 2313177000000, 
-7.403709853363376, 1.1292904815657119, 0.4423691995293436, 2313182000000, 
-10.987365615692353, 1.6607877518991363, 0.438429050131301, 2313187000000, 
-9.250989436241891, 1.446275321488127, 0.43551811113807826, 2313192000000, 
-9.341378333250248, 1.456832428613562, 0.43163092398034236, 2313197000000, 
-9.253205357916256, 1.4696780386234758, 0.4289169701492682, 2313202000000, 
-9.168494807556224, 1.4770966914518888, 0.4254992329444437, 2313207000000, 
-9.28096460361109, 1.4886958155233194, 0.4226035958988788, 2313212000000, 
-7.39357908026356, 1.218018081402743, 0.4204118451249137, 2313217000000, 
-11.146766920366996, 1.8670212602410676, 0.4165262465289708, 2313222000000, 
-9.191598920886099, 1.536003034331602, 0.4125737991414409, 2313227000000, 
-7.425979299706539, 1.259970880469306, 0.4103807201159523, 2313232000000, 
-9.236022674179072, 1.5897549074534496, 0.4074902589796472, 2313237000000, 
-11.121502277393937, 1.9520430592941056, 0.4038677436248381, 2313242000000, 
-7.418146926288204, 1.2758330443366661, 0.40147386342483954, 2313247000000, 
-10.98234609015777, 1.9192949202133183, 0.39743689823413325, 2313252000000, 
-7.425413689034253, 1.312038402756624, 0.39502557596090915, 2313257000000, 
-11.102919675641767, 1.9741705530349754, 0.3912067124549089, 2313262000000, 
-7.385187790535319, 1.3196288320183607, 0.388583500813887, 2313267000000, 
-9.1921223563697, 1.67273114548837, 0.3850988005097542, 2313272000000, 
-9.231190344000826, 1.6959507029323853, 0.382261653990584, 2313277000000, 
-11.11779752544275, 2.088118749122911, 0.37866507205417693, 2313282000000, 
-7.373232361633139, 1.3746595561605885, 0.376025393115459, 2313287000000, 
-10.975562667560862, 2.0922972815727077, 0.37231326254111585, 2313292000000, 
-7.4124958225838355, 1.3965842564218551, 0.36962137100689313, 2313297000000, 
-9.232897499639304, 1.755263511376666, 0.36554346227316514, 2313302000000, 
-9.245987737549342, 1.7647111470644037, 0.36374008109068634, 2313307000000, 
-9.195138925417506, 1.7747422947973062, 0.3600137751732525, 2313312000000, 
-11.103201777436988, 2.1558092165040526, 0.35597205475028254, 2313317000000, 
-7.387657061027616, 1.464054766332126, 0.3538069674866814, 2313322000000, 
-9.23299083052842, 1.818091023978176, 0.35112430542573225, 2313327000000, 
-9.200766039030977, 1.8392634895396724, 0.3468743167985128, 2313332000000, 
-11.05642682326562, 2.2548439002116774, 0.3437928780149624, 2313337000000, 
-9.242941252755877, 1.850841229596783, 0.3411249367934974, 2313342000000, 
-7.383508324608649, 1.4699266381983498, 0.338831948979213, 2313347000000, 
-9.188811421684553, 1.8617165014263692, 0.3348063477223889, 2313352000000, 
-11.08295690558201, 2.2866991926257474, 0.3311981408279171, 2313357000000, 
-10.052547832443066, 2.0847221832633887, 0.32770166751068397, 2313363000000, 
-5.557524919039503, 1.1492672655920293, 0.3262481194793197, 2313368000000, 
-11.766521765373339, 2.4635281696679403, 0.3203522800793591, 2313374000000, 
-6.205934466303851, 1.325903357324238, 0.3194815121302322, 2313379000000, 
-9.204543669304792, 1.9293607130035264, 0.3158487463735378, 2313384000000, 
-9.181324644054474, 1.968448356548187, 0.31262979163050025, 2313389000000, 
-9.178298271428494, 2.0024073310586505, 0.30912731911701735, 2313395000000, 
-9.18952800464318, 1.9735744136480637, 0.3060053413711416, 2313400000000, 
-9.18537918927386, 2.000837265805781, 0.3029988977227349, 2313405000000, 
-9.176746550868993, 1.968342556405776, 0.30001573148875654, 2313410000000, 
-9.18426619398087, 2.0325569822475016, 0.2971897457858798, 2313415000000, 
-9.200581466629579, 2.0512283240251703, 0.2937459316609734, 2313420000000, 
-9.153179062481708, 2.0562188837772624, 0.290180595266681, 2313425000000, 
-9.199193495157248, 2.035494226649334, 0.28864699358652224, 2313430000000, 
-9.16466937402958, 2.046102501922881, 0.2845969436276223, 2313435000000, 
-9.170885022439936, 2.052366725976844, 0.28170296385936977, 2313440000000, 
-9.178522914714788, 2.08693066059624, 0.2787569304340593, 2313445000000, 
-9.146234485048902, 2.0826392331979693, 0.27548296968391217, 2313450000000, 
-9.18394153051816, 2.1146123598321656, 0.27070544505700045, 2313457000000, 
-9.161988025393102, 2.0948094220642264, 0.2685835061543284, 2313462000000, 
-9.157214905986297, 2.1488714434433764, 0.2654568611009693, 2313467000000, 
-9.178234635560857, 2.1424199208752714, 0.2614696087623019, 2313472000000, 
-9.16293997854129, 2.1638377575542744, 0.2594571643288044, 2313477000000, 
-9.193784459725501, 2.1019409025829097, 0.2556443724570984, 2313482000000, 
-9.198360509875094, 2.1437150381005616, 0.2530933696881438, 2313487000000, 
-9.207614914597604, 2.1424274144871784, 0.24944151026073, 2313492000000, 
-9.168577301534189, 2.150817753248457, 0.24613060134589726, 2313498000000, 
-9.185561303624512, 2.152464952834476, 0.24384165859660034, 2313503000000, 
-9.164886937617965, 2.2217807784061416, 0.23915379883225193, 2313510000000, 
-9.148824236397969, 2.1822633171108317, 0.23642406775148472, 2313515000000, 
-9.16703269501914, 2.164121453572917, 0.23287474803611977, 2313520000000, 
-9.188318854809793, 2.197334268374643, 0.23060977142795763, 2313525000000, 
-9.16136946980703, 2.1871470724220448, 0.22620386525070874, 2313531000000, 
-9.177380067499127, 2.2387949941656404, 0.2245062394408798, 2313536000000, 
-9.137338424841184, 2.212706703817725, 0.22086150617501754, 2313541000000, 
-9.170038495143139, 2.2223519070030875, 0.21822093349228136, 2313546000000, 
-9.159497757274679, 2.2448715990073502, 0.2148983083529862, 2313551000000, 
-9.172798059387178, 2.2055276820746545, 0.21219505522239238, 2313556000000, 
-9.137369614897501, 2.2552923896603447, 0.20923334449795158, 2313561000000, 
-9.143953245096162, 2.233205392368891, 0.20631477667375606, 2313566000000, 
-9.167391698981588, 2.238347609800134, 0.20303542794185506, 2313571000000, 
-9.171625142211322, 2.261307940204108, 0.20036068141951333, 2313576000000, 
-9.14834000663972, 2.272148398864769, 0.19686497365713987, 2313581000000, 
-9.156464720762052, 2.285048558513965, 0.19397764189351205, 2313586000000, 
-9.209835772267912, 2.290522912798973, 0.1914064316988925, 2313591000000, 
-9.147645893556634, 2.2757729096180297, 0.18898739499717893, 2313596000000, 
-9.180266220715168, 2.284181532370515, 0.1851998327004693, 2313601000000, 
-9.176897754221857, 2.286492286977852, 0.18242070913229466, 2313606000000, 
-9.140780890171069, 2.27215576875147, 0.17981962803020493, 2313611000000, 
-9.175125947618703, 2.273757012102402, 0.17669554452681796, 2313616000000, 
-9.190571150696458, 2.322533945611265, 0.17315256589130212, 2313622000000, 
-9.183140649190895, 2.2875478245654692, 0.16982029068701626, 2313627000000, 
-9.162555982241603, 2.302548070015261, 0.16727175883097906, 2313632000000, 
-9.188749009546198, 2.3104413952632177, 0.16421132713186457, 2313637000000, 
-9.13781900824343, 2.3119221536824734, 0.16062541710965886, 2313642000000, 
-9.164256165644487, 2.30397533531496, 0.15829110212287356, 2313647000000, 
-9.170884796518207, 2.303386450877376, 0.15560325589933421, 2313652000000, 
-9.176896426619834, 2.3267599222168776, 0.15243112186533533, 2313657000000, 
-9.19017677925374, 2.323785983738372, 0.14824154045476085, 2313664000000, 
-9.171945095886468, 2.3570068916623796, 0.14513424461077304, 2313669000000, 
-9.191884706932408, 2.341049413205114, 0.142575983639706, 2313674000000, 
-9.171235296915365, 2.3313874334377744, 0.13985622509590942, 2313679000000, 
-9.183999741605197, 2.338313917420875, 0.13667801069499416, 2313684000000, 
-9.192877667486952, 2.3416563643106594, 0.1337043071879506, 2313689000000, 
-9.195406563556206, 2.3589928228121098, 0.13114088876596286, 2313694000000, 
-9.176053155256046, 2.3263807531001284, 0.12784553851992508, 2313699000000, 
-9.153875024638564, 2.3678359374208804, 0.12495246069202608, 2313704000000, 
-9.164438706776902, 2.3421427900479137, 0.12200132306884726, 2313709000000, 
-9.186894865040392, 2.369138201595882, 0.11888200634587756, 2313714000000, 
-9.182285245248025, 2.3588318010265574, 0.11582301411505874, 2313719000000, 
-9.166162558588397, 2.368029656520538, 0.11340323024529674, 2313724000000, 
-9.194512217282098, 2.358326993690634, 0.11025862720596719, 2313729000000, 
-9.164487422164651, 2.370080616025673, 0.10739716601208028, 2313734000000, 
-9.173598587047008, 2.3476261607710978, 0.10356105499306668, 2313740000000, 
-9.162882094250454, 2.353620551443515, 0.10016951264293066, 2313745000000, 
-9.191398830693094, 2.3880935352424135, 0.0977925606935676, 2313750000000, 
-9.151858373923172, 2.367673993133674, 0.09446810595860185, 2313755000000, 
-9.148372739213862, 2.3328344054867833, 0.09166087003895061, 2313760000000, 
-9.167291797180285, 2.3808465628796367, 0.08900672643174715, 2313765000000, 
-9.1534544989111, 2.3383927387015273, 0.08592668194240553, 2313770000000, 
-9.189684185771334, 2.354255957382352, 0.08265702381126673, 2313775000000, 
-9.172602716055943, 2.3508500532895447, 0.08042135394600121, 2313780000000, 
-9.192208455395024, 2.3310421084612196, 0.07720296081426081, 2313785000000, 
-9.187961660804273, 2.3691470008599875, 0.07447802470847278, 2313790000000, 
-9.214118190085205, 2.347778900326227, 0.07040550822008032, 2313795000000, 
-9.203852545435739, 2.340574849723464, 0.06822986197036025, 2313800000000, 
-9.187428245239746, 2.3537418163131925, 0.06539010101634841, 2313805000000, 
-9.215585293198545, 2.3460364298827883, 0.06245873738935249, 2313810000000, 
-9.231354801702969, 2.3433450975292263, 0.05966584403024425, 2313815000000, 
-9.165413050416515, 2.338649832923594, 0.05712506376157502, 2313820000000, 
-9.182769289673368, 2.33235318684482, 0.0537154614089894, 2313825000000, 
-9.179431970847613, 2.3492912186767985, 0.050812024920914974, 2313830000000, 
-9.195310458757985, 2.3115846339586374, 0.04802457318477624, 2313835000000, 
-9.235450495277641, 2.3281698702385305, 0.04459317547582311, 2313840000000, 
-11.009505227094573, 2.81211062078451, 0.04167847785266352, 2313845000000, 
-5.617553972111535, 1.415648076276771, 0.03936049406555522, 2313850000000, 
-11.014299633056423, 2.787560162868159, 0.03606405313909204, 2313855000000, 
-9.318393843636038, 2.3404705705565023, 0.03307717264931923, 2313860000000, 
-10.58934090104368, 2.6777290162305145, 0.028979789609211066, 2313865000000, 
-7.411802483334345, 1.8474989908315878, 0.026355579429764145, 2313870000000, 
-9.518723174445826, 2.4280258614378947, 0.0238848626557503, 2313875000000, 
-9.27249241600434, 2.3316582600035876, 0.021346191642087762, 2313880000000, 
-7.3934863148174355, 1.8766416001754485, 0.0189373614972126, 2313885000000, 
-25.2656660689502, 6.345943287652654, 0.017389692041567904, 2313890000000, 
-8.173597069060158, 2.028658959183506, 0.012389521814077306, 2313895000000, 
-9.800307931494803, 2.4220927144817863, 0.009145453922583202, 2313900000000, 
-7.4300779644834565, 1.849943878335764, 0.007255372692223281, 2313905000000, 
-12.255765904477741, 3.078291121125805, 0.0029598585157773185, 2313910000000, 
-7.414255955300425, 1.8290397577782358, 0.00036354627759672465, 2313915000000, 
-8.35854377196096, 2.0750297874586487, -0.002752198771158046, 2313920000000, 
-9.236379147433414, 2.2791940131306627, -0.005016347794247584, 2313925000000, 
-12.029369259584046, 3.0075010275700174, -0.008947181082666112, 2313930000000, 
-7.414615509541231, 1.799627428827879, -0.011300239568567997, 2313935000000, 
-10.161487027392498, 2.458251670235043, -0.014678175160980904, 2313940000000, 
-7.417321132512485, 1.8259028644637185, -0.016985792994981593, 2313945000000, 
-11.911151868127389, 2.9488756089342316, -0.021068192741976983, 2313950000000, 
-7.382060740862168, 1.8149464078704853, -0.022882663585369493, 2313955000000, 
-10.35233531746162, 2.513701936935042, -0.026380520876063195, 2313960000000, 
-7.413009485981621, 1.7916795676753696, -0.028766326098730123, 2313965000000, 
-11.81246999355771, 2.878565945271404, -0.0326339758782698, 2313970000000, 
-7.431642777228846, 1.807351598987536, -0.035092197761842525, 2313975000000, 
-10.437690864292462, 2.4962918483549656, -0.03846790085813127, 2313980000000, 
-7.427360823318955, 1.7656254561960636, -0.040884494081139956, 2313985000000, 
-11.72272406032143, 2.8259687814165955, -0.044310656072676056, 2313990000000, 
-7.450029493476504, 1.7674777130691834, -0.047141567752932004, 2313995000000, 
-8.81217458407983, 2.109345804209746, -0.050195273159976524, 2314000000000, 
-9.3076595247129, 2.203702271991279, -0.05303782147435701, 2314005000000, 
-11.640524008048702, 2.7438331599356793, -0.05647001591727738, 2314010000000, 
-8.859372636073104, 2.1043512200816106, -0.06006046253729817, 2314015000000, 
-9.287614732664768, 2.1927795525240508, -0.06272689917514086, 2314020000000, 
-7.458584212326821, 1.7640677279967527, -0.06484821580948634, 2314025000000, 
-11.571617680072235, 2.678926480903596, -0.06875130201030691, 2314030000000, 
-7.430351394213541, 1.7228228983840155, -0.07115451857192617, 2314035000000, 
-10.745384706388663, 2.485458249527388, -0.07453218967378625, 2314040000000, 
-7.439033678136425, 1.7120769697647522, -0.07710964372474452, 2314045000000, 
-11.530761682989976, 2.6633794007636094, -0.08099059931932782, 2314050000000, 
-7.416860999832837, 1.7192032510110478, -0.08351385995232856, 2314055000000, 
-9.031586021467678, 2.051692298442123, -0.08695215396863382, 2314060000000, 
-11.48604726115292, 2.617550131379719, -0.09062023941414724, 2314065000000, 
-7.493381133704533, 1.6929304095821776, -0.09304254630489327, 2314070000000, 
-9.326895993423193, 2.1072632726330838, -0.09586495216876816, 2314075000000, 
-10.87532997616218, 2.4262587730971963, -0.09943228312324293, 2314080000000, 
-7.474496048664419, 1.6571668277361726, -0.10149179199538172, 2314085000000, 
-11.438475727158771, 2.556314704744326, -0.10546725484708212, 2314090000000, 
-7.4815097972688935, 1.6649843389795478, -0.10803012347567452, 2314095000000, 
-10.93684357047028, 2.3962722081052816, -0.11200167812768534, 2314100000000, 
-7.500371418761849, 1.6421545364714787, -0.11404980699831528, 2314105000000, 
-11.425306481774156, 2.486047898471598, -0.11779921128000816, 2314110000000, 
-7.483238448821094, 1.6176474889903603, -0.12008147825233179, 2314115000000, 
-10.971394346905074, 2.3790703830390774, -0.12371035760510585, 2314120000000, 
-9.367439836803396, 2.034715785977134, -0.12850158245048507, 2314127000000, 
-9.348536266052138, 1.994035126364877, -0.13125406333369685, 2314132000000, 
-7.513937544842799, 1.5843970030235257, -0.13352155172335153, 2314137000000, 
-11.394684295687172, 2.4338940934844575, -0.1373250446335674, 2314142000000, 
-7.498774958341551, 1.5606223641652273, -0.13955422306368767, 2314147000000, 
-9.248348116051998, 1.9497318139716862, -0.14314383285653587, 2314152000000, 
-11.361397844862768, 2.3492213726854785, -0.1471860185913168, 2314157000000, 
-9.38254597614993, 1.9117018120303582, -0.14983413233070844, 2314162000000, 
-7.538205892607688, 1.5309866575169877, -0.15195509263810422, 2314167000000, 
-11.09856486422482, 2.232194964705744, -0.15600229525150666, 2314172000000, 
-7.525420149884283, 1.5020484756693815, -0.15863954430535696, 2314177000000, 
-11.367086073531615, 2.307403135233422, -0.1620056106773963, 2314182000000, 
-7.529503269903913, 1.5175562866361925, -0.1649823113423741, 2314187000000, 
-9.292713781097184, 1.8558419536030142, -0.1687254258286826, 2314192000000, 
-9.398969678611877, 1.845422529058629, -0.17082128322101622, 2314197000000, 
-11.388358188277895, 2.2145461428407383, -0.17485116570196055, 2314202000000, 
-7.553750482725292, 1.4769076006785558, -0.1772326764755773, 2314207000000, 
-11.18748020877868, 2.1260521066168785, -0.18085746870933614, 2314212000000, 
-9.51172312650711, 1.8018101735737404, -0.18524679309364422, 2314217000000, 
-9.439600263316438, 1.8195922604797325, -0.18757148906800108, 2314222000000, 
-9.317779115150215, 1.793921004935713, -0.1916237069480045, 2314227000000, 
-9.442983720501534, 1.7776958694351925, -0.19383193320460357, 2314232000000, 
-7.57440248426081, 1.3952936877470121, -0.19657985671863504, 2314237000000, 
-11.395081538096116, 2.0850537840734176, -0.2001775571398536, 2314242000000, 
-7.560295896491096, 1.3827459290220605, -0.20311753536824573, 2314247000000, 
-11.2653145902519, 2.047809995387387, -0.20609532761955462, 2314252000000, 
-7.572809928462964, 1.3399161255420873, -0.20920925659447465, 2314257000000, 
-11.3707383694472, 2.0340681841927246, -0.2134976771491144, 2314262000000, 
-7.586571262809072, 1.3396389459230245, -0.21557115664515447, 2314267000000, 
-11.27296402776135, 1.9907946454345404, -0.21946783104935658, 2314272000000, 
-7.611157737049784, 1.305267864678299, -0.22190377283721127, 2314277000000, 
-11.413376916541317, 1.9697435437061173, -0.22600966443732293, 2314282000000, 
-6.243455345406097, 1.076745179330132, -0.22732492433698323, 2314287000000, 
-10.823413172302967, 1.8325331905381617, -0.23254957434070211, 2314292000000, 
-7.605170424160663, 1.2940874773087296, -0.23500882298019532, 2314297000000, 
-11.41782136374565, 1.8976885522638451, -0.2389148925159436, 2314302000000, 
-7.589895028467709, 1.259316532343966, -0.24149458465225526, 2314307000000, 
-11.321066791992212, 1.8366321333197888, -0.245482668826889, 2314312000000, 
-9.553427881050512, 1.5465149103094469, -0.24948385902640305, 2314317000000, 
-7.638124699021857, 1.2537771281750556, -0.25227709877379223, 2314322000000, 
-11.337345619772387, 1.8133468743165877, -0.25618261264868636, 2314327000000, 
-9.513363671309387, 1.497708277045818, -0.258766620785636, 2314332000000, 
-9.554266265462532, 1.4539133509576667, -0.2626440387261087, 2314337000000, 
-9.525234144989968, 1.4483300989103591, -0.2654671143361983, 2314342000000, 
-9.470984046672282, 1.442652917227519, -0.26912585844637477, 2314347000000, 
-9.551907244308856, 1.4119640695357045, -0.27172869798907356, 2314352000000, 
-7.640436470486406, 1.1392402891987299, -0.2748300260379964, 2314357000000, 
-11.463661367392957, 1.6491905285652262, -0.27868402550243804, 2314362000000, 
-7.634982827849605, 1.0995341226771402, -0.28102027547657094, 2314367000000, 
-9.551775577368844, 1.3428019056989604, -0.28640498123426306, 2314374000000, 
-9.557991313845625, 1.3272865372995992, -0.28932459835136404, 2314379000000, 
-11.424735909973668, 1.584994156265602, -0.2934350156111056, 2314384000000, 
-7.67260189868193, 1.0465269905134442, -0.2961840912069061, 2314389000000, 
-11.483300132316677, 1.5216715436648212, -0.30012054404697536, 2314394000000, 
-7.6504189639912035, 1.0265587227322568, -0.30283864238824304, 2314399000000, 
-9.54173182475557, 1.2582849152339448, -0.30761609502560616, 2314404000000, 
-9.552875997464454, 1.2485835729614139, -0.3095567921503595, 2314409000000, 
-9.633530729004447, 1.213012232280269, -0.3137327373785336, 2314414000000, 
-9.566371478955098, 1.1773701450385798, -0.31641985572669584, 2314419000000, 
-9.564930839165037, 1.153700156544796, -0.3201249997405479, 2314424000000, 
-9.580831728229164, 1.1538588581330615, -0.32287368015953455, 2314429000000, 
-11.528463226630617, 1.3468359139367174, -0.327226496050669, 2314434000000, 
-7.692638308531263, 0.900714163748194, -0.3296648426026614, 2314439000000, 
-11.458665093806964, 1.3068481576135322, -0.33393385890466004, 2314444000000, 
-7.667975452102819, 0.8395235234381084, -0.33636488642243073, 2314449000000, 
-11.53757030644076, 1.280525813475035, -0.34082651601088293, 2314454000000, 
-9.604963904601563, 1.0648760702365359, -0.34492728403623696, 2314459000000, 
-9.628060608578874, 1.0300228475626507, -0.34718624125603154, 2314464000000, 
-7.717188765947481, 0.8165836338033442, -0.3501248898919493, 2314469000000, 
-11.539507954390086, 1.1757830821430093, -0.35427726540240956, 2314474000000, 
-7.745256816089622, 0.7611342344485019, -0.3569820669632356, 2314479000000, 
-11.541042505500366, 1.116314416256229, -0.3611439057192251, 2314484000000, 
-7.726156061377878, 0.7061376209973999, -0.36440538649015825, 2314489000000, 
-11.545846111174667, 1.0745808635633283, -0.36846635006617295, 2314494000000, 
-7.74045317283095, 0.7029052102989956, -0.3710537650579669, 2314499000000, 
-11.552922950142454, 1.0199210649168169, -0.37546924366960804, 2314504000000, 
-7.7200768053829005, 0.6592916025101437, -0.378308337811078, 2314509000000, 
-11.56299980418911, 0.9740784509509799, -0.382473223545653, 2314514000000, 
-7.7117151414488925, 0.6317537713031771, -0.38529587522304637, 2314519000000, 
-11.551749615465054, 0.9182140761291878, -0.38963368814875965, 2314524000000, 
-7.75219891003317, 0.6023381694294061, -0.39222396683886895, 2314529000000, 
-11.570683040278633, 0.8558748403833378, -0.3972258649518658, 2314534000000, 
-7.729057528557324, 0.6126025170780038, -0.3995765754283444, 2314539000000, 
-11.604779489393467, 0.8387541069176025, -0.40392431849515226, 2314544000000, 
-9.650756739845148, 0.6599523968842343, -0.40833509761628306, 2314549000000, 
-7.767190490319131, 0.5069325198504239, -0.41107536699119, 2314554000000, 
-11.543832769797387, 0.7251632451780785, -0.415747005872155, 2314559000000, 
-9.687033489817388, 0.5867511108811317, -0.41802929823837165, 2314564000000, 
-7.745867020840885, 0.45846740706687183, -0.4209187505197662, 2314569000000, 
-11.636071866307747, 0.6312760680736633, -0.4254579267163075, 2314574000000, 
-7.765580163362849, 0.3935199024172178, -0.4280994658759554, 2314579000000, 
-11.639992914835599, 0.5792948842181888, -0.4327455377485772, 2314584000000, 
-7.748094223592531, 0.39412150337706725, -0.43556881275285997, 2314589000000, 
-9.70819410754275, 0.4599007348212678, -0.44000201391876753, 2314594000000, 
-9.699175449559457, 0.4220809842657274, -0.4426926767817249, 2314599000000, 
-11.598865790542234, 0.47386810006015817, -0.4467115461772375, 2314604000000, 
-7.758080063482369, 0.28334570406028203, -0.45017744899174067, 2314609000000, 
-11.639462967483807, 0.43189893173516386, -0.45456820010918886, 2314614000000, 
-7.767690875820509, 0.2776159015969811, -0.45748236380788343, 2314619000000, 
-11.61401055318807, 0.37043911027413917, -0.46211156800767944, 2314624000000, 
-7.812869401939735, 0.21341123902751097, -0.4642557284144371, 2314629000000, 
-9.744651488841637, 0.2688580597185385, -0.4693392749556245, 2314634000000, 
-9.708282070999665, 0.21170828842253261, -0.4724452965221926, 2314639000000, 
-9.731704882171908, 0.1863947708303162, -0.4770320042173762, 2314644000000, 
-9.705560995357981, 0.1816158435453592, -0.4796244784443766, 2314649000000, 
-11.669643394617573, 0.1978304134233282, -0.48418038429284443, 2314654000000, 
-7.802939767961848, 0.10661960549764159, -0.4870612565074131, 2314659000000, 
-11.608420930101719, 0.1307831549587197, -0.4917383674163772, 2314664000000, 
-7.782252310128818, 0.06571186573774744, -0.494954530413887, 2314669000000, 
-11.647086289492494, 0.059367173170224385, -0.49927654618158135, 2314674000000, 
-6.494564024561323, 0.06527400653304001, -0.5005677790877187, 2314679000000, 
-11.088643968117944, -0.024331634448640296, -0.5066497224651606, 2314684000000, 
-21.089761288379535, -0.16745230098827188, -0.49815742034861893, 2314689000000, 
-11.065763161941561, -0.0543868037492808, -0.49322358821375245, 2314694000000, 
-8.375339602865523, -0.06579761475379171, -0.48917082974973153, 2314700000000, 
-9.706955649531084, -0.08189621642988543, -0.4860141133876976, 2314705000000, 
-13.066897775781133, -0.1509378707348759, -0.48079042603336336, 2314710000000, 
-8.538105866616869, -0.15454136023967596, -0.4766506310061109, 2314715000000, 
-10.8082777900408, -0.20280099974276172, -0.47121979355214494, 2314721000000, 
-9.687480602916395, -0.20539139835865297, -0.4686025245366422, 2314726000000, 
-7.789534600771635, -0.16082178764871238, -0.46507102086349605, 2314731000000, 
-10.45882248642115, -0.2516989896816275, -0.461330828165821, 2314736000000, 
-7.784846595566299, -0.21184986836093922, -0.4577333248099734, 2314741000000, 
-12.703914937913924, -0.3760243433171486, -0.453163323037705, 2314746000000, 
-7.77290525426472, -0.26321533185204415, -0.4496023836080014, 2314751000000, 
-10.657374730385255, -0.3585026058087765, -0.4456136822617788, 2314756000000, 
-7.831596790173654, -0.2988511020034324, -0.44243757543243895, 2314761000000, 
-12.539770542890325, -0.4693712894833524, -0.43801627680572663, 2314766000000, 
-7.765325337568369, -0.3650470447955823, -0.43458802433783295, 2314771000000, 
-10.817972640269412, -0.47550013125387935, -0.4302988040178938, 2314776000000, 
-7.81162074971497, -0.3683259769108906, -0.4273859254435924, 2314781000000, 
-10.341414109654034, -0.5271881602451841, -0.4225342645276768, 2314786000000, 
-9.720221789572706, -0.48293064722706724, -0.4196224642542992, 2314791000000, 
-10.923513249367472, -0.5873049164729709, -0.41538785726380745, 2314796000000, 
-7.797979255075599, -0.4220958993981418, -0.412014988435227, 2314801000000, 
-12.25100881322613, -0.7327571778898629, -0.4076459749038156, 2314806000000, 
-9.186048180190367, -0.5528042951336034, -0.40362859004271817, 2314811000000, 
-9.700484538111867, -0.6236521585952344, -0.4003180517640219, 2314816000000, 
-7.7959629640870105, -0.49443507354244903, -0.397227567990025, 2314821000000, 
-12.165057271321283, -0.7989024845480012, -0.3931118818752277, 2314826000000, 
-7.761486636674194, -0.5556518576857613, -0.38969565790654925, 2314831000000, 
-11.10480377773742, -0.7823511227081927, -0.38558453316119573, 2314836000000, 
-7.802298483836509, -0.5687339273289812, -0.3828096956693488, 2314841000000, 
-12.111801649942318, -0.8366350496955579, -0.3781956069728866, 2314846000000, 
-7.745348798842599, -0.6265366026879708, -0.3754118230128664, 2314851000000, 
-11.170057984462757, -0.9084647864157576, -0.3712969294330787, 2314856000000, 
-7.76973532915666, -0.6570343673671548, -0.36805825736869274, 2314861000000, 
-12.011637235247148, -0.9750941258122736, -0.3637957123960515, 2314866000000, 
-19.06961947547109, -10.633281183315555, -0.35775081761042515, 2314871000000, 
-9.535283193986572, -0.9404114793568159, -0.35481193517900234, 2314876000000, 
-7.643891697862931, -0.6732945061841529, -0.3522731532243274, 2314881000000, 
-9.51548160546397, -0.8351345574120378, -0.34924761993912246, 2314886000000, 
-8.249543501644144, -0.731642149495831, -0.34521054380825655, 2314891000000, 
-10.788276852865803, -0.9718702429612965, -0.3408086874408003, 2314896000000, 
-9.533566222951658, -0.909090064100639, -0.33747321833746285, 2314901000000, 
-8.394397479249324, -0.8107491099003631, -0.3335195933383127, 2314906000000, 
-9.544895992627191, -0.9493339854130137, -0.33119863053970827, 2314911000000, 
-12.694744601921016, -1.299703373139395, -0.3263775804599267, 2314916000000, 
-8.542398095429203, -0.8699290691677449, -0.3222120244499227, 2314921000000, 
-9.544027388500067, -0.995517093538854, -0.31957529703392856, 2314926000000, 
-7.645525200966609, -0.7946834288388517, -0.31669829410783057, 2314931000000, 
-10.393911945410032, -1.1047519377441057, -0.31178254754121143, 2314936000000, 
-9.493897620618592, -1.023030798084704, -0.3088851750319696, 2314941000000, 
-10.44288066573934, -1.1001827238669608, -0.30548084294269534, 2314946000000, 
-7.631693344841995, -0.8566156243718871, -0.30280946396096103, 2314951000000, 
-12.332915137685886, -1.3397388672304849, -0.2982791348804131, 2314956000000, 
-7.615805060101552, -0.8379044717766029, -0.2951208265611913, 2314961000000, 
-10.5532441964794, -1.2304132444680598, -0.29128238881457497, 2314966000000, 
-7.615155762381882, -0.8572838336722797, -0.28810357547314513, 2314971000000, 
-12.181844214013575, -1.4446229111134274, -0.28359769663742845, 2314976000000, 
-7.615527083281095, -0.8929218002836103, -0.28110314788873003, 2314981000000, 
-10.834979385460871, -1.2857743059194462, -0.27514873030959847, 2314988000000, 
-9.528893920838353, -1.1657083355455156, -0.2726641061247802, 2314993000000, 
-8.949595494402702, -1.1209626109049844, -0.26845758646500706, 2314998000000, 
-7.627506035570964, -0.9697699670509979, -0.26575407283423597, 2315003000000, 
-12.005841176192238, -1.5039699953500045, -0.26136422144797317, 2315008000000, 
-7.606752386908091, -0.9529479868505077, -0.2586556448807877, 2315013000000, 
-10.836939146973307, -1.406011174002837, -0.25451114770078415, 2315018000000, 
-7.656384468192143, -1.0104772364292458, -0.25185345736946346, 2315023000000, 
-11.899965237585285, -1.5623582359961108, -0.24752629341100002, 2315028000000, 
-7.5891594990146265, -1.0130853291490522, -0.24484316590490254, 2315034000000, 
-9.096681306539839, -1.1831614280044958, -0.24071179577279833, 2315039000000, 
-9.83986726780816, -1.3229902646876037, -0.2367216876570656, 2315044000000, 
-9.497636072666507, -1.2825001066823767, -0.2335135287311005, 2315049000000, 
-10.959492340575014, -1.5057020748304248, -0.2294322338658617, 2315054000000, 
-7.604652799273101, -1.017991726336559, -0.22665775963537257, 2315059000000, 
-11.763087566045554, -1.6071524594196496, -0.22249588786315785, 2315064000000, 
-7.587401923460744, -1.0569693763425372, -0.21934117283498308, 2315069000000, 
-11.024073096096846, -1.5776232598228515, -0.21527018138016726, 2315074000000, 
-7.599395864973692, -1.0982181164682998, -0.21305457029333527, 2315079000000, 
-11.662994978472007, -1.6499620519745306, -0.20836046391939286, 2315084000000, 
-7.603139450904301, -1.0677439428128912, -0.20565836281671612, 2315089000000, 
-11.09397345423616, -1.6086275906239709, -0.2017922293745871, 2315094000000, 
-7.6040006874472885, -1.0879679387435706, -0.19902516531285386, 2315099000000, 
-11.641253214176043, -1.703708905044015, -0.19505542427012162, 2315104000000, 
-7.570431414386741, -1.1000677282265883, -0.19189497546283277, 2315109000000, 
-11.10558229691477, -1.6548510441567172, -0.18799424325127523, 2315114000000, 
-7.575026732247832, -1.1434995475995036, -0.18503629417185988, 2315119000000, 
-11.591043965487344, -1.768619836498268, -0.18093261720363527, 2315124000000, 
-7.582729949055949, -1.1425041178417628, -0.1780621628427086, 2315129000000, 
-11.123427299246659, -1.6960725805510812, -0.17459541199829462, 2315134000000, 
-9.65856752448662, -1.4778051779485601, -0.17013897783009527, 2315139000000, 
-9.487047940616478, -1.4678968629367877, -0.16736542533504306, 2315144000000, 
-9.471825237857479, -1.4679595209183827, -0.16499088236542525, 2315149000000, 
-7.981418503405262, -1.254555681270334, -0.16056704197148128, 2315154000000, 
-9.616395189263683, -1.4971308338908442, -0.1564850805850269, 2315160000000, 
-11.186222379982436, -1.7283021440777775, -0.1525029299517816, 2315165000000, 
-7.560964697813171, -1.2021169699281669, -0.15017840363312893, 2315170000000, 
-9.465518547333714, -1.4777372428884965, -0.14726204963828035, 2315175000000, 
-9.573774728810829, -1.532401953874896, -0.14321897081628587, 2315180000000, 
-9.433817544534197, -1.4958369372320992, -0.14037022148528733, 2315185000000, 
-8.437767115505128, -1.3554758293735973, -0.13750575971728793, 2315190000000, 
-9.463001465449313, -1.5174238929428516, -0.13326849770618812, 2315195000000, 
-11.28003640049992, -1.8403051708515625, -0.12922952494914186, 2315200000000, 
-9.464754479612631, -1.5317723214822005, -0.12638042754993456, 2315205000000, 
-9.442737794808005, -1.5386857983343398, -0.12319779494133207, 2315210000000, 
-9.4480093637487, -1.552024280223882, -0.12040666269012536, 2315215000000, 
-9.45118953968533, -1.5653204434560402, -0.11634388742550067, 2315220000000, 
-9.457683528356917, -1.5520512963779662, -0.11301398748446521, 2315225000000, 
-9.412883301310185, -1.5560705664877887, -0.10885883153338703, 2315231000000, 
-9.426130583692771, -1.573343530115542, -0.10583023690127151, 2315236000000, 
-9.430300060756755, -1.5402884489734998, -0.10277192734279, 2315241000000, 
-9.43632573556903, -1.5263886015356767, -0.09824118428146177, 2315246000000, 
-9.437851531370518, -1.564716401196008, -0.09542178265717838, 2315251000000, 
-9.477947793709294, -1.5809422012713499, -0.0923101101094561, 2315256000000, 
-9.426207878865444, -1.5660510332078943, -0.08995549145662002, 2315261000000, 
-9.445152551612649, -1.5472348634463522, -0.08442618672629842, 2315266000000, 
-9.46606047906927, -1.58081690982032, -0.08098975585889054, 2315271000000, 
-9.431887472519325, -1.5654366278749385, -0.07879272327617552, 2315276000000, 
-9.431286219988571, -1.5952332889435898, -0.07506775263430672, 2315281000000, 
-9.457856921500838, -1.5653184816694998, -0.07199852359018495, 2315286000000, 
-9.405495484115404, -1.5695583982017023, -0.06853582281341448, 2315291000000, 
-9.436171946624034, -1.5962833476831992, -0.06485448659360767, 2315296000000, 
-9.460735096138272, -1.5948544546240708, -0.0618162831708383, 2315301000000, 
-9.443531891091457, -1.6142103986034042, -0.05790017736245008, 2315306000000, 
-9.438850932768581, -1.5962198785675559, -0.05520646596661727, 2315311000000, 
-9.413735589353731, -1.6169763066158027, -0.051627836609991186, 2315316000000, 
-9.438529613648546, -1.5969656562179713, -0.048371916598216984, 2315321000000, 
-9.443840647112607, -1.5789736277751187, -0.044541986800875545, 2315326000000, 
-9.442706786603521, -1.5875221089703822, -0.04002047134026569, 2315332000000, 
-9.437577616563418, -1.6067758210345653, -0.037137275602558625, 2315337000000, 
-9.39688880281917, -1.5987975206372438, -0.034537685973592414, 2315342000000, 
-9.45826822755752, -1.6037066266258644, -0.031279233755111636, 2315347000000, 
-9.428710875132566, -1.628689683045856, -0.027418757445890177, 2315352000000, 
-9.421458763010644, -1.608836597259781, -0.02433460331209284, 2315357000000, 
-9.429017459249442, -1.5836749928726013, -0.02023161263008301, 2315362000000, 
-9.414434103817815, -1.5784782400945798, -0.017703771437173086, 2315367000000, 
-9.43228760063694, -1.627006808146081, -0.013358959925417071, 2315372000000, 
-9.40017645249972, -1.604522346207826, -0.010606665829507738, 2315377000000, 
-9.462096959384548, -1.582705187268554, -0.00719922263344594, 2315382000000, 
-9.447501916915567, -1.586676331048427, -0.0037441529765856307, 2315387000000, 
-9.435226441188544, -1.5589341241493027, -0.0005711599338188368, 2315392000000, 
-9.456488015665013, -1.596754700154502, 0.004206668408781999, 2315399000000, 
-9.418552611900253, -1.5653637057341898, 0.00750825083890624, 2315404000000, 
-9.417731868916933, -1.6109976283174015, 0.010761234437908605, 2315409000000, 
-9.447961490388193, -1.6182532049058322, 0.014442619881002315, 2315414000000, 
-9.435827814627402, -1.5656768752926673, 0.018085470872883626, 2315420000000, 
-7.904959024343108, -1.3037477863076055, 0.021760269085597823, 2315425000000, 
-14.091293909457354, -2.392135193917493, 0.02561279604846112, 2315430000000, 
-7.5442117532684305, -1.2734146239377666, 0.02818769031820883, 2315435000000, 
-9.6044977871799, -1.594415249683465, 0.03189370300129561, 2315440000000, 
-7.5782716233363665, -1.269882455604605, 0.03448998981218607, 2315445000000, 
-12.930143946702792, -2.126286376874161, 0.03944337700477433, 2315450000000, 
-8.220675479675503, -1.3750640745296618, 0.04239145344220518, 2315455000000, 
-9.47358180764036, -1.5810387417521534, 0.045743994001075476, 2315460000000, 
-7.58253886923561, -1.2621487567981156, 0.04789927326882599, 2315465000000, 
-12.6622521347995, -2.1074592373219825, 0.05285885622817322, 2315470000000, 
-7.528812977783082, -1.2355807883966414, 0.055252477388990195, 2315475000000, 
-10.080100005052161, -1.6278061833981974, 0.058831275215540844, 2315480000000, 
-0.037150206211109184, -0.02617871439150589, 0.058890378102268374, 2315485000000, 
-10.354291182872197, -1.6706490026864265, 0.06711390073214647, 2315491000000, 
-9.511782426404134, -1.532211104393855, 0.0695817591497112, 2315496000000, 
-7.606949660223943, -1.2328836667626137, 0.07248654377217069, 2315501000000, 
-12.380870118804594, -2.0071301577121985, 0.07676583228262356, 2315506000000, 
-8.65568301593104, -1.3743681797424643, 0.08016873984482305, 2315511000000, 
-9.476600412622656, -1.5031962610842906, 0.08289372895475892, 2315516000000, 
-7.562194863716776, -1.211738225998455, 0.08573392710309333, 2315521000000, 
-10.200019560985988, -1.5974058729489296, 0.09032783828227015, 2315526000000, 
-9.464132173531572, -1.4975588035598952, 0.09289633975255897, 2315531000000, 
-10.565988937293634, -1.6488953087225788, 0.09670128610687337, 2315536000000, 
-10.10414165428294, -1.5795242080345442, 0.10113444217384882, 2315541000000, 
-9.47032459360939, -1.4954288979394883, 0.10415747614789522, 2315546000000, 
-7.608487922987465, -1.1263758437733284, 0.10673284290033408, 2315551000000, 
-10.689204221819542, -1.6711807302177242, 0.11075987131023553, 2315556000000, 
-7.568309603232053, -1.1891481830833295, 0.11328585475487003, 2315561000000, 
-11.958730045819788, -1.8635327957132166, 0.11740767838426557, 2315566000000, 
-7.589882019804433, -1.166270065047532, 0.12032505314702682, 2315571000000, 
-10.763311194076348, -1.6332921977967625, 0.12382106376972393, 2315576000000, 
-7.624533304212923, -1.1590344309179221, 0.1265581999744163, 2315581000000, 
-11.878374654534756, -1.8177490335113204, 0.13076153005796193, 2315586000000, 
-7.5732311369841465, -1.1469131387099434, 0.1334767282841615, 2315591000000, 
-9.461897881586369, -1.4033866635249423, 0.13886247095981988, 2315599000000, 
-10.897536567154724, -1.6336640695600009, 0.1430360161960557, 2315604000000, 
-7.598662811525057, -1.1197795222431235, 0.14615943682453064, 2315609000000, 
-11.798142154049673, -1.735702466245562, 0.14979451470590877, 2315614000000, 
-20.879485314781807, 7.961474296272315, 0.16036951796218893, 2315619000000, 
-11.823596397368005, -1.7330397057074958, 0.1643806182910604, 2315624000000, 
-7.736075730308235, -1.1204071125845192, 0.16722803216163973, 2315629000000, 
-9.43563088801297, -1.3735489391592999, 0.17162937697730737, 2315634000000, 
-9.683686164027737, -1.3711668833825998, 0.17466712765152062, 2315639000000, 
-9.832637996730364, -1.3895455182218197, 0.17869502443855856, 2315644000000, 
-9.660982670320665, -1.367909509897802, 0.18124234031382908, 2315649000000, 
-11.384069706450795, -1.5882523455963256, 0.1858607895401266, 2315654000000, 
-7.771118644273993, -1.1097844837755626, 0.18776684245070752, 2315659000000, 
-11.777172870309402, -1.6028456936886928, 0.19229948560508706, 2315664000000, 
-9.484807483787918, -1.3018123972358873, 0.19683614440038066, 2315669000000, 
-9.694016103904458, -1.3427617788660644, 0.19908296148623955, 2315675000000, 
-9.805497868805846, -1.3000099727283045, 0.20358359598418535, 2315680000000, 
-7.751641747499766, -1.0328177230983235, 0.20623894117172406, 2315685000000, 
-11.425589919820537, -1.5546349476218118, 0.2105141565745106, 2315690000000, 
-7.741614729509877, -1.023439057402227, 0.21334108137046334, 2315695000000, 
-11.736263990993535, -1.56562949682395, 0.21722592187765088, 2315700000000, 
-7.771161674056745, -1.0111572689214308, 0.2206440454872201, 2315705000000, 
-11.449285189245705, -1.510088973395805, 0.22493911784588616, 2315710000000, 
-7.763861160080163, -1.003247046039778, 0.22738259077337897, 2315715000000, 
-11.71760746456296, -1.496011410423183, 0.23169423674396755, 2315720000000, 
-9.573918474810664, -1.2159347014708677, 0.23608520860106824, 2315725000000, 
-7.762287957226348, -0.9501585601190793, 0.23905440317200385, 2315730000000, 
-9.686482613513274, -1.203032295109346, 0.24134496363581046, 2315735000000, 
-11.68731038874782, -1.4341037529816503, 0.2458270007727252, 2315740000000, 
-7.73798184475983, -0.9274553647701993, 0.24881103202720034, 2315745000000, 
-11.47924050279798, -1.3595089442489365, 0.25310226029849364, 2315750000000, 
-7.727173201530385, -0.9039670332574781, 0.25591280245210124, 2315755000000, 
-11.649830388161973, -1.3917827688252848, 0.2600174297376182, 2315760000000, 
-7.761727680464422, -0.854809239984083, 0.2628066864211387, 2315765000000, 
-11.489133054130319, -1.326965246702742, 0.2674709095224985, 2315770000000, 
-7.732998586534758, -0.9132604068273218, 0.27033569806388474, 2315775000000, 
-11.628646373393943, -1.309326941960379, 0.2748208933247321, 2315780000000, 
-7.76058703494154, -0.8769058461062277, 0.2774135574898705, 2315785000000, 
-11.52021438409381, -1.2971949610548978, 0.28170466461518284, 2315790000000, 
-7.7468311624451776, -0.8496675597623368, 0.28429832566978036, 2315795000000, 
-11.64848157049557, -1.2571355973612113, 0.2887674878442549, 2315800000000, 
-7.762186286086232, -0.8452406087634572, 0.29202735766704335, 2315805000000, 
-9.603497031398705, -0.991125165141684, 0.2959819069246361, 2315810000000, 
-9.654959720435484, -0.9658996749460041, 0.2986673974933694, 2315815000000, 
-9.712245619281157, -0.9891347179898871, 0.30275576148285055, 2315820000000, 
-9.678642704227185, -0.9842420476249049, 0.30577425071230696, 2315825000000, 
-11.548325571600436, -1.1532548780249419, 0.31025698280601255, 2315830000000, 
-7.74047899641865, -0.7561937185081447, 0.3132567020848251, 2315835000000, 
-9.688658605613451, -0.9278334978471474, 0.31764592268125247, 2315840000000, 
-9.65584232309681, -0.93361341037806, 0.32008280536893724, 2315845000000, 
-11.566177283372912, -1.0865294165976735, 0.3245423348632527, 2315850000000, 
-7.738010636224811, -0.7209416172598376, 0.3276204701349877, 2315855000000, 
-9.674211422875647, -0.8759334212298571, 0.3315411873060257, 2315860000000, 
-9.65088824302502, -0.878181051106596, 0.3345362895968159, 2315865000000, 
-11.550045163094913, -1.023436100120384, 0.3390535996994466, 2315870000000, 
-7.750864842356808, -0.6555813901968686, 0.34216640890488476, 2315875000000, 
-11.597291963335428, -0.9683366151204778, 0.34632341387601, 2315880000000, 
-7.742496679097846, -0.6470891663430556, 0.3493175191577417, 2315885000000, 
-9.664799328487517, -0.7525643281028809, 0.35225002782715686, 2315890000000, 
-9.662238844823115, -0.750471805885402, 0.3563285452516742, 2315895000000, 
-9.665552756118329, -0.7516324051905475, 0.3610348873762106, 2315900000000, 
-9.66852380992328, -0.7591294714527184, 0.36384830732662343, 2315905000000, 
-11.544527439116528, -0.8648744208918244, 0.3684013816694073, 2315910000000, 
-7.755034709294922, -0.5492308434303139, 0.37091818691684625, 2315915000000, 
-9.677801682924995, -0.6598660347566189, 0.3757050447932214, 2315920000000, 
-9.640944763003278, -0.682264495558899, 0.37869924010388745, 2315925000000, 
-11.535804321270154, -0.786670296544903, 0.38304309629148825, 2315930000000, 
-7.75021755680653, -0.48741203131363825, 0.3857421759194665, 2315935000000, 
-9.652403728516129, -0.6325681750820359, 0.39025753560174015, 2315940000000, 
-9.638080913505819, -0.6028605305958694, 0.392955480988374, 2315945000000, 
-11.560721605131127, -0.6699694587243537, 0.3975198067449024, 2315950000000, 
-7.76187194553971, -0.45102116614478166, 0.4006371561300963, 2315955000000, 
-11.533470483959773, -0.6833701028984099, 0.4046266118060978, 2315960000000, 
-7.709941935005034, -0.44593493148904806, 0.407924997590742, 2315965000000, 
-11.520877390747687, -0.6233262105471099, 0.41212563935347796, 2315970000000, 
-7.706707388745645, -0.4063822734030475, 0.4150690653544647, 2315975000000, 
-11.544673060354276, -0.6024135700131935, 0.4195848966613997, 2315980000000, 
-7.710096901546659, -0.37434439158205507, 0.4229218553924998, 2315985000000, 
-11.510904658718443, -0.5263214358143001, 0.42721102840677605, 2315990000000, 
-7.723348972027845, -0.328159718855544, 0.43015056006726615, 2315995000000, 
-11.54071968960485, -0.4797934623093629, 0.43419288163241765, 2316000000000, 
-7.673346621737798, -0.3143557652625693, 0.4375817503787135, 2316005000000, 
-11.55079054591494, -0.4571737138459581, 0.44227969562832997, 2316010000000, 
-7.689859344211752, -0.2807741208197395, 0.4448112499132624, 2316015000000, 
-11.539177202784437, -0.3757813636462714, 0.44937729384771014, 2316020000000, 
-7.691098706470532, -0.2730790190493615, 0.45287477481340555, 2316025000000, 
-11.500459233273247, -0.3445976772902971, 0.4568534401564719, 2316030000000, 
-7.699712480500361, -0.21884681769539063, 0.4595332978442141, 2316035000000, 
-11.498930815379532, -0.3000331383731174, 0.46435603433422196, 2316040000000, 
-7.689629674619092, -0.16463686697069874, 0.4676232507637058, 2316045000000, 
-11.483063373072495, -0.2803529354548445, 0.47171212124692913, 2316050000000, 
-9.616273385118843, -0.21718020188237375, 0.47695304286068474, 2316055000000, 
-9.593820741992372, -0.16869510201194757, 0.47933045765788374, 2316060000000, 
-7.707377065074411, -0.12642781390200572, 0.482426107043121, 2316065000000, 
-11.49073123214088, -0.1395827364796717, 0.4871277612116001, 2316070000000, 
-7.669850688512853, -0.06561897901385946, 0.4902216830017561, 2316075000000, 
-11.457649608359189, -0.12489268335078241, 0.4945598224704856, 2316080000000, 
-7.657613222367459, -0.04361792493786923, 0.4984254235952601, 2316085000000, 
-11.45404772447689, -0.0574059680646426, 0.5024519229749099, 2316090000000, 
-7.639834146923993, 0.010021295485916527, 0.5056666274161322, 2316095000000, 
-26.450554504302165, 0.06640016183339173, 0.5011413364969065, 2316100000000, 
-8.183898188160303, 0.04069133708731408, 0.49667185858949436, 2316105000000, 
-9.550669119006141, 0.041278827380428956, 0.49451190259829286, 2316110000000, 
-7.6444304201565085, 0.05200781230871953, 0.4912788902786131, 2316115000000, 
-12.915082311480388, 0.13001318196191947, 0.4860200731970205, 2316120000000, 
-8.338632319010944, 0.07636609961493734, 0.4823094652421419, 2316125000000, 
-9.536626198106537, 0.11899603128577721, 0.4794134980984813, 2316130000000, 
-7.6448227032617515, 0.1345236879460195, 0.4764627815594442, 2316135000000, 
-12.682262751955891, 0.2319885074211123, 0.47195641948330025, 2316140000000, 
-7.585134961281511, 0.1683826795304452, 0.46855413738650414, 2316145000000, 
-10.21176397899952, 0.23831007683092165, 0.4648220486471538, 2316150000000, 
-7.647082721173587, 0.20661410306227224, 0.4619353958495636, 2316155000000, 
-12.46491594467971, 0.31818757801302255, 0.4569584773631893, 2316160000000, 
